XsensPlugin_processed_com_acceleration_x;XsensPlugin_processed_com_acceleration_y;XsensPlugin_processed_com_acceleration_z;XsensPlugin_processed_com_position_x;XsensPlugin_processed_com_position_y;XsensPlugin_processed_com_position_z;XsensPlugin_processed_com_velocity_x;XsensPlugin_processed_com_velocity_y;XsensPlugin_processed_com_velocity_z;t
0;0;0;0;0;0;0;0;0;0
0;0;0;0;0;0;0;0;0;0.005
0;0;0;0;0;0;0;0;0;0.01
0;0;0;0;0;0;0;0;0;0.015
0;0;0;0;0;0;0;0;0;0.02
0;0;0;0;0;0;0;0;0;0.025
0;0;0;0;0;0;0;0;0;0.03
0;0;0;0;0;0;0;0;0;0.035
0;0;0;0;0;0;0;0;0;0.04
0;0;0;0;0;0;0;0;0;0.045
0;0;0;0;0;0;0;0;0;0.05
0;0;0;0;0;0;0;0;0;0.055
0;0;0;0;0;0;0;0;0;0.06
0;0;0;0;0;0;0;0;0;0.065
0;0;0;0;0;0;0;0;0;0.07
0;0;0;0;0;0;0;0;0;0.075
0;0;0;0;0;0;0;0;0;0.08
0;0;0;0;0;0;0;0;0;0.085
0;0;0;0;0;0;0;0;0;0.09
0;0;0;0;0;0;0;0;0;0.095
0;0;0;0;0;0;0;0;0;0.1
0;0;0;0;0;0;0;0;0;0.105
0;0;0;0;0;0;0;0;0;0.11
0;0;0;0;0;0;0;0;0;0.115
0;0;0;0;0;0;0;0;0;0.12
0;0;0;0;0;0;0;0;0;0.125
0;0;0;0;0;0;0;0;0;0.13
0;0;0;0;0;0;0;0;0;0.135
0;0;0;0;0;0;0;0;0;0.14
0;0;0;0;0;0;0;0;0;0.145
0;0;0;0;0;0;0;0;0;0.15
0;0;0;0;0;0;0;0;0;0.155
0;0;0;0;0;0;0;0;0;0.16
0;0;0;0;0;0;0;0;0;0.165
0;0;0;0;0;0;0;0;0;0.17
0;0;0;0;0;0;0;0;0;0.175
0;0;0;0;0;0;0;0;0;0.18
0;0;0;0;0;0;0;0;0;0.185
0;0;0;0;0;0;0;0;0;0.19
0;0;0;0;0;0;0;0;0;0.195
0;0;0;0;0;0;0;0;0;0.2
0;0;0;0;0;0;0;0;0;0.205
0;0;0;0;0;0;0;0;0;0.21
0;0;0;0;0;0;0;0;0;0.215
0;0;0;0;0;0;0;0;0;0.22
0;0;0;0;0;0;0;0;0;0.225
0;0;0;0;0;0;0;0;0;0.23
0;0;0;0;0;0;0;0;0;0.235
0;0;0;0;0;0;0;0;0;0.24
0;0;0;0;0;0;0;0;0;0.245
0;0;0;0;0;0;0;0;0;0.25
0;0;0;0;0;0;0;0;0;0.255
0;0;0;0;0;0;0;0;0;0.26
0;0;0;0;0;0;0;0;0;0.265
0;0;0;0;0;0;0;0;0;0.27
0;0;0;0;0;0;0;0;0;0.275
0;0;0;0;0;0;0;0;0;0.28
0;0;0;0;0;0;0;0;0;0.285
0;0;0;0;0;0;0;0;0;0.29
0;0;0;0;0;0;0;0;0;0.295
0;0;0;0;0;0;0;0;0;0.3
0;0;0;0;0;0;0;0;0;0.305
0;0;0;0;0;0;0;0;0;0.31
0;0;0;0;0;0;0;0;0;0.315
0;0;0;0;0;0;0;0;0;0.32
0;0;0;0;0;0;0;0;0;0.325
0;0;0;0;0;0;0;0;0;0.33
0;0;0;0;0;0;0;0;0;0.335
0;0;0;0;0;0;0;0;0;0.34
0;0;0;0;0;0;0;0;0;0.345
0;0;0;0;0;0;0;0;0;0.35
0;0;0;0;0;0;0;0;0;0.355
0;0;0;0;0;0;0;0;0;0.36
0;0;0;0;0;0;0;0;0;0.365
0;0;0;0;0;0;0;0;0;0.37
0;0;0;0;0;0;0;0;0;0.375
0;0;0;0;0;0;0;0;0;0.38
0;0;0;0;0;0;0;0;0;0.385
0;0;0;0;0;0;0;0;0;0.39
0;0;0;0;0;0;0;0;0;0.395
0;0;0;0;0;0;0;0;0;0.4
0;0;0;0;0;0;0;0;0;0.405
0;0;0;0;0;0;0;0;0;0.41
0;0;0;0;0;0;0;0;0;0.415
0;0;0;0;0;0;0;0;0;0.42
0;0;0;0;0;0;0;0;0;0.425
0;0;0;0;0;0;0;0;0;0.43
0;0;0;0;0;0;0;0;0;0.435
0;0;0;0;0;0;0;0;0;0.44
0;0;0;0;0;0;0;0;0;0.445
0;0;0;0;0;0;0;0;0;0.45
0;0;0;0;0;0;0;0;0;0.455
0;0;0;0;0;0;0;0;0;0.46
0;0;0;0;0;0;0;0;0;0.465
0;0;0;0;0;0;0;0;0;0.47
0;0;0;0;0;0;0;0;0;0.475
0;0;0;0;0;0;0;0;0;0.48
0;0;0;0;0;0;0;0;0;0.485
0;0;0;0;0;0;0;0;0;0.49
0;0;0;0;0;0;0;0;0;0.495
0;0;0;0;0;0;0;0;0;0.5
0;0;0;0;0;0;0;0;0;0.505
0;0;0;0;0;0;0;0;0;0.51
0;0;0;0;0;0;0;0;0;0.515
0;0;0;0;0;0;0;0;0;0.52
0;0;0;0;0;0;0;0;0;0.525
0;0;0;0;0;0;0;0;0;0.53
0;0;0;0;0;0;0;0;0;0.535
0;0;0;0;0;0;0;0;0;0.54
0;0;0;0;0;0;0;0;0;0.545
0;0;0;0;0;0;0;0;0;0.55
0;0;0;0;0;0;0;0;0;0.555
0;0;0;0;0;0;0;0;0;0.56
0;0;0;0;0;0;0;0;0;0.565
0;0;0;0;0;0;0;0;0;0.57
0;0;0;0;0;0;0;0;0;0.575
0;0;0;0;0;0;0;0;0;0.58
0;0;0;0;0;0;0;0;0;0.585
0;0;0;0;0;0;0;0;0;0.59
0;0;0;0;0;0;0;0;0;0.595
0;0;0;0;0;0;0;0;0;0.6
0;0;0;0;0;0;0;0;0;0.605
0;0;0;0;0;0;0;0;0;0.61
0;0;0;0;0;0;0;0;0;0.615
0;0;0;0;0;0;0;0;0;0.62
0;0;0;0;0;0;0;0;0;0.625
0;0;0;0;0;0;0;0;0;0.63
0;0;0;0;0;0;0;0;0;0.635
0;0;0;0;0;0;0;0;0;0.64
0;0;0;0;0;0;0;0;0;0.645
0;0;0;0;0;0;0;0;0;0.65
0;0;0;0;0;0;0;0;0;0.655
0;0;0;0;0;0;0;0;0;0.66
0;0;0;0;0;0;0;0;0;0.665
0;0;0;0;0;0;0;0;0;0.67
0;0;0;0;0;0;0;0;0;0.675
0;0;0;0;0;0;0;0;0;0.68
0;0;0;0;0;0;0;0;0;0.685
0;0;0;0;0;0;0;0;0;0.69
0;0;0;0;0;0;0;0;0;0.695
0;0;0;0;0;0;0;0;0;0.7
0;0;0;0;0;0;0;0;0;0.705
0;0;0;0;0;0;0;0;0;0.71
0;0;0;0;0;0;0;0;0;0.715
0;0;0;0;0;0;0;0;0;0.72
0;0;0;0;0;0;0;0;0;0.725
0;0;0;0;0;0;0;0;0;0.73
0;0;0;0;0;0;0;0;0;0.735
0;0;0;0;0;0;0;0;0;0.74
0;0;0;0;0;0;0;0;0;0.745
0;0;0;0;0;0;0;0;0;0.75
0;0;0;0;0;0;0;0;0;0.755
0;0;0;0;0;0;0;0;0;0.76
0;0;0;0;0;0;0;0;0;0.765
0;0;0;0;0;0;0;0;0;0.77
0;0;0;0;0;0;0;0;0;0.775
0;0;0;0;0;0;0;0;0;0.78
0;0;0;0;0;0;0;0;0;0.785
0;0;0;0;0;0;0;0;0;0.79
0;0;0;0;0;0;0;0;0;0.795
0;0;0;0;0;0;0;0;0;0.8
0;0;0;0;0;0;0;0;0;0.805
0;0;0;0;0;0;0;0;0;0.81
0;0;0;0;0;0;0;0;0;0.815
0;0;0;0;0;0;0;0;0;0.82
0;0;0;0;0;0;0;0;0;0.825
0;0;0;0;0;0;0;0;0;0.83
0;0;0;0;0;0;0;0;0;0.835
0;0;0;0;0;0;0;0;0;0.84
0;0;0;0;0;0;0;0;0;0.845
0;0;0;0;0;0;0;0;0;0.85
0;0;0;0;0;0;0;0;0;0.855
0;0;0;0;0;0;0;0;0;0.86
0;0;0;0;0;0;0;0;0;0.865
0;0;0;0;0;0;0;0;0;0.87
0;0;0;0;0;0;0;0;0;0.875
0;0;0;0;0;0;0;0;0;0.88
0;0;0;0;0;0;0;0;0;0.885
0;0;0;0;0;0;0;0;0;0.89
0;0;0;0;0;0;0;0;0;0.895
0;0;0;0;0;0;0;0;0;0.9
0;0;0;0;0;0;0;0;0;0.905
0;0;0;0;0;0;0;0;0;0.91
0;0;0;0;0;0;0;0;0;0.915
0;0;0;0;0;0;0;0;0;0.92
0;0;0;0;0;0;0;0;0;0.925
0;0;0;0;0;0;0;0;0;0.93
0;0;0;0;0;0;0;0;0;0.935
0;0;0;0;0;0;0;0;0;0.94
0;0;0;0;0;0;0;0;0;0.945
0;0;0;0;0;0;0;0;0;0.95
0;0;0;0;0;0;0;0;0;0.955
0;0;0;0;0;0;0;0;0;0.96
0;0;0;0;0;0;0;0;0;0.965
0;0;0;0;0;0;0;0;0;0.97
0;0;0;0;0;0;0;0;0;0.975
0;0;0;0;0;0;0;0;0;0.98
0;0;0;0;0;0;0;0;0;0.985
0;0;0;0;0;0;0;0;0;0.99
0;0;0;0;0;0;0;0;0;0.995
0;0;0;0;0;0;0;0;0;1
0;0;0;0;0;0;0;0;0;1.005
0;0;0;0;0;0;0;0;0;1.01
0;0;0;0;0;0;0;0;0;1.015
0;0;0;0;0;0;0;0;0;1.02
0;0;0;0;0;0;0;0;0;1.025
0;0;0;0;0;0;0;0;0;1.03
0;0;0;0;0;0;0;0;0;1.035
0;0;0;0;0;0;0;0;0;1.04
0;0;0;0;0;0;0;0;0;1.045
0;0;0;0;0;0;0;0;0;1.05
0;0;0;0;0;0;0;0;0;1.055
0;0;0;0;0;0;0;0;0;1.06
0;0;0;0;0;0;0;0;0;1.065
0;0;0;0;0;0;0;0;0;1.07
0;0;0;0;0;0;0;0;0;1.075
0;0;0;0;0;0;0;0;0;1.08
0;0;0;0;0;0;0;0;0;1.085
0;0;0;0;0;0;0;0;0;1.09
0;0;0;0;0;0;0;0;0;1.095
0;0;0;0;0;0;0;0;0;1.1
0;0;0;0;0;0;0;0;0;1.105
0;0;0;0;0;0;0;0;0;1.11
0;0;0;0;0;0;0;0;0;1.115
0;0;0;0;0;0;0;0;0;1.12
0;0;0;0;0;0;0;0;0;1.125
0;0;0;0;0;0;0;0;0;1.13
0;0;0;0;0;0;0;0;0;1.135
0;0;0;0;0;0;0;0;0;1.14
0;0;0;0;0;0;0;0;0;1.145
0;0;0;0;0;0;0;0;0;1.15
0;0;0;0;0;0;0;0;0;1.155
0;0;0;0;0;0;0;0;0;1.16
0;0;0;0;0;0;0;0;0;1.165
0;0;0;0;0;0;0;0;0;1.17
0;0;0;0;0;0;0;0;0;1.175
0;0;0;0;0;0;0;0;0;1.18
0;0;0;0;0;0;0;0;0;1.185
0;0;0;0;0;0;0;0;0;1.19
0;0;0;0;0;0;0;0;0;1.195
0;0;0;0;0;0;0;0;0;1.2
0;0;0;0;0;0;0;0;0;1.205
0;0;0;0;0;0;0;0;0;1.21
0;0;0;0;0;0;0;0;0;1.215
0;0;0;0;0;0;0;0;0;1.22
0;0;0;0;0;0;0;0;0;1.225
0;0;0;0;0;0;0;0;0;1.23
0;0;0;0;0;0;0;0;0;1.235
0;0;0;0;0;0;0;0;0;1.24
0;0;0;0;0;0;0;0;0;1.245
0;0;0;0;0;0;0;0;0;1.25
0;0;0;0;0;0;0;0;0;1.255
0;0;0;0;0;0;0;0;0;1.26
0;0;0;0;0;0;0;0;0;1.265
0;0;0;0;0;0;0;0;0;1.27
0;0;0;0;0;0;0;0;0;1.275
0;0;0;0;0;0;0;0;0;1.28
0;0;0;0;0;0;0;0;0;1.285
0;0;0;0;0;0;0;0;0;1.29
0;0;0;0;0;0;0;0;0;1.295
0;0;0;0;0;0;0;0;0;1.3
0;0;0;0;0;0;0;0;0;1.305
0;0;0;0;0;0;0;0;0;1.31
0;0;0;0;0;0;0;0;0;1.315
0;0;0;0;0;0;0;0;0;1.32
0;0;0;0;0;0;0;0;0;1.325
0;0;0;0;0;0;0;0;0;1.33
0;0;0;0;0;0;0;0;0;1.335
0;0;0;0;0;0;0;0;0;1.34
0;0;0;0;0;0;0;0;0;1.345
0;0;0;0;0;0;0;0;0;1.35
0;0;0;0;0;0;0;0;0;1.355
0;0;0;0;0;0;0;0;0;1.36
0;0;0;0;0;0;0;0;0;1.365
0;0;0;0;0;0;0;0;0;1.37
0;0;0;0;0;0;0;0;0;1.375
0;0;0;0;0;0;0;0;0;1.38
0;0;0;0;0;0;0;0;0;1.385
0;0;0;0;0;0;0;0;0;1.39
0;0;0;0;0;0;0;0;0;1.395
0;0;0;0;0;0;0;0;0;1.4
0;0;0;0;0;0;0;0;0;1.405
0;0;0;0;0;0;0;0;0;1.41
0;0;0;0;0;0;0;0;0;1.415
0;0;0;0;0;0;0;0;0;1.42
0;0;0;0;0;0;0;0;0;1.425
0;0;0;0;0;0;0;0;0;1.43
0;0;0;0;0;0;0;0;0;1.435
0;0;0;0;0;0;0;0;0;1.44
0;0;0;0;0;0;0;0;0;1.445
0;0;0;0;0;0;0;0;0;1.45
0;0;0;0;0;0;0;0;0;1.455
0;0;0;0;0;0;0;0;0;1.46
0;0;0;0;0;0;0;0;0;1.465
0;0;0;0;0;0;0;0;0;1.47
0;0;0;0;0;0;0;0;0;1.475
0;0;0;0;0;0;0;0;0;1.48
0;0;0;0;0;0;0;0;0;1.485
0;0;0;0;0;0;0;0;0;1.49
0;0;0;0;0;0;0;0;0;1.495
0;0;0;0;0;0;0;0;0;1.5
0;0;0;0;0;0;0;0;0;1.505
0;0;0;0;0;0;0;0;0;1.51
0;0;0;0;0;0;0;0;0;1.515
0;0;0;0;0;0;0;0;0;1.52
0;0;0;0;0;0;0;0;0;1.525
0;0;0;0;0;0;0;0;0;1.53
0;0;0;0;0;0;0;0;0;1.535
0;0;0;0;0;0;0;0;0;1.54
0;0;0;0;0;0;0;0;0;1.545
0;0;0;0;0;0;0;0;0;1.55
0;0;0;0;0;0;0;0;0;1.555
0;0;0;0;0;0;0;0;0;1.56
0;0;0;0;0;0;0;0;0;1.565
0;0;0;0;0;0;0;0;0;1.57
0;0;0;0;0;0;0;0;0;1.575
0;0;0;0;0;0;0;0;0;1.58
0;0;0;0;0;0;0;0;0;1.585
0;0;0;0;0;0;0;0;0;1.59
0;0;0;0;0;0;0;0;0;1.595
0;0;0;0;0;0;0;0;0;1.6
0;0;0;0;0;0;0;0;0;1.605
0;0;0;0;0;0;0;0;0;1.61
0;0;0;0;0;0;0;0;0;1.615
0;0;0;0;0;0;0;0;0;1.62
0;0;0;0;0;0;0;0;0;1.625
0;0;0;0;0;0;0;0;0;1.63
0;0;0;0;0;0;0;0;0;1.635
0;0;0;0;0;0;0;0;0;1.64
0;0;0;0;0;0;0;0;0;1.645
0;0;0;0;0;0;0;0;0;1.65
0;0;0;0;0;0;0;0;0;1.655
0;0;0;0;0;0;0;0;0;1.66
0;0;0;0;0;0;0;0;0;1.665
0;0;0;0;0;0;0;0;0;1.67
0;0;0;0;0;0;0;0;0;1.675
0;0;0;0;0;0;0;0;0;1.68
0;0;0;0;0;0;0;0;0;1.685
0;0;0;0;0;0;0;0;0;1.69
0;0;0;0;0;0;0;0;0;1.695
0;0;0;0;0;0;0;0;0;1.7
0;0;0;0;0;0;0;0;0;1.705
0;0;0;0;0;0;0;0;0;1.71
0;0;0;0;0;0;0;0;0;1.715
0;0;0;0;0;0;0;0;0;1.72
0;0;0;0;0;0;0;0;0;1.725
0;0;0;0;0;0;0;0;0;1.73
0;0;0;0;0;0;0;0;0;1.735
0;0;0;0;0;0;0;0;0;1.74
0;0;0;0;0;0;0;0;0;1.745
0;0;0;0;0;0;0;0;0;1.75
0;0;0;0;0;0;0;0;0;1.755
0;0;0;0;0;0;0;0;0;1.76
0;0;0;0;0;0;0;0;0;1.765
0;0;0;0;0;0;0;0;0;1.77
0;0;0;0;0;0;0;0;0;1.775
0;0;0;0;0;0;0;0;0;1.78
0;0;0;0;0;0;0;0;0;1.785
0;0;0;0;0;0;0;0;0;1.79
0;0;0;0;0;0;0;0;0;1.795
0;0;0;0;0;0;0;0;0;1.8
0;0;0;0;0;0;0;0;0;1.805
0;0;0;0;0;0;0;0;0;1.81
0;0;0;0;0;0;0;0;0;1.815
0;0;0;0;0;0;0;0;0;1.82
0;0;0;0;0;0;0;0;0;1.825
0;0;0;0;0;0;0;0;0;1.83
0;0;0;0;0;0;0;0;0;1.835
0;0;0;0;0;0;0;0;0;1.84
0;0;0;0;0;0;0;0;0;1.845
0;0;0;0;0;0;0;0;0;1.85
0;0;0;0;0;0;0;0;0;1.855
0;0;0;0;0;0;0;0;0;1.86
0;0;0;0;0;0;0;0;0;1.865
0;0;0;0;0;0;0;0;0;1.87
0;0;0;0;0;0;0;0;0;1.875
0;0;0;0;0;0;0;0;0;1.88
0;0;0;0;0;0;0;0;0;1.885
0;0;0;0;0;0;0;0;0;1.89
0;0;0;0;0;0;0;0;0;1.895
0;0;0;0;0;0;0;0;0;1.9
0.359303;-0.590117;-0.157507;-0.783833;0.213648;1.02365;0.00112503;-0.274899;-0.0214471;1.905
0.359303;-0.590117;-0.157507;-0.783833;0.213648;1.02365;0.00112503;-0.274899;-0.0214471;1.91
0.359303;-0.590117;-0.157507;-0.783833;0.213648;1.02365;0.00112503;-0.274899;-0.0214471;1.915
0.359303;-0.590117;-0.157507;-0.783833;0.213648;1.02365;0.00112503;-0.274899;-0.0214471;1.92
0.377581;-0.614409;-0.287463;-0.783955;0.207703;1.02313;0.00886815;-0.284811;-0.0261142;1.925
0.377581;-0.614409;-0.287463;-0.783955;0.207703;1.02313;0.00886815;-0.284811;-0.0261142;1.93
0.376038;-0.697222;-0.247347;-0.783988;0.201557;1.02258;0.016972;-0.299006;-0.0303455;1.935
0.376038;-0.697222;-0.247347;-0.783988;0.201557;1.02258;0.016972;-0.299006;-0.0303455;1.94
0.376038;-0.697222;-0.247347;-0.783988;0.201557;1.02258;0.016972;-0.299006;-0.0303455;1.945
0.376038;-0.697222;-0.247347;-0.783988;0.201557;1.02258;0.016972;-0.299006;-0.0303455;1.95
0.376038;-0.697222;-0.247347;-0.783988;0.201557;1.02258;0.016972;-0.299006;-0.0303455;1.955
0.368343;-0.82218;-0.240117;-0.783908;0.195161;1.02199;0.0245134;-0.321608;-0.0334409;1.96
0.368343;-0.82218;-0.240117;-0.783908;0.195161;1.02199;0.0245134;-0.321608;-0.0334409;1.965
0.368343;-0.82218;-0.240117;-0.783908;0.195161;1.02199;0.0245134;-0.321608;-0.0334409;1.97
0.374568;-0.859518;-0.195434;-0.783739;0.188563;1.02136;0.0280329;-0.347841;-0.0361953;1.975
0.374568;-0.859518;-0.195434;-0.783739;0.188563;1.02136;0.0280329;-0.347841;-0.0361953;1.98
0.374568;-0.859518;-0.195434;-0.783739;0.188563;1.02136;0.0280329;-0.347841;-0.0361953;1.985
0.371331;-0.747921;-0.0892062;-0.783457;0.181704;1.02071;0.030821;-0.374653;-0.0381643;1.99
0.371331;-0.747921;-0.0892062;-0.783457;0.181704;1.02071;0.030821;-0.374653;-0.0381643;1.995
0.371331;-0.747921;-0.0892062;-0.783457;0.181704;1.02071;0.030821;-0.374653;-0.0381643;2
0.374855;-0.731559;-0.0971706;-0.783045;0.174571;1.02003;0.0349455;-0.400342;-0.0394968;2.005
0.374855;-0.731559;-0.0971706;-0.783045;0.174571;1.02003;0.0349455;-0.400342;-0.0394968;2.01
0.374855;-0.731559;-0.0971706;-0.783045;0.174571;1.02003;0.0349455;-0.400342;-0.0394968;2.015
0.374855;-0.731559;-0.0971706;-0.783045;0.174571;1.02003;0.0349455;-0.400342;-0.0394968;2.02
0.431575;-0.864412;-0.13262;-0.782521;0.167176;1.01932;0.0386057;-0.424873;-0.0403813;2.025
0.431575;-0.864412;-0.13262;-0.782521;0.167176;1.01932;0.0386057;-0.424873;-0.0403813;2.03
0.431575;-0.864412;-0.13262;-0.782521;0.167176;1.01932;0.0386057;-0.424873;-0.0403813;2.035
0.431575;-0.864412;-0.13262;-0.782521;0.167176;1.01932;0.0386057;-0.424873;-0.0403813;2.04
0.295884;-0.944459;-0.0951887;-0.781908;0.159496;1.01856;0.0447604;-0.448351;-0.0415868;2.045
0.295884;-0.944459;-0.0951887;-0.781908;0.159496;1.01856;0.0447604;-0.448351;-0.0415868;2.05
0.226072;-1.13174;-0.211759;-0.781246;0.151516;1.01767;0.0530341;-0.470598;-0.0457589;2.055
0.226072;-1.13174;-0.211759;-0.781246;0.151516;1.01767;0.0530341;-0.470598;-0.0457589;2.06
0.226072;-1.13174;-0.211759;-0.781246;0.151516;1.01767;0.0530341;-0.470598;-0.0457589;2.065
0.226072;-1.13174;-0.211759;-0.781246;0.151516;1.01767;0.0530341;-0.470598;-0.0457589;2.07
0.435545;-0.998432;-0.309201;-0.780495;0.143252;1.01674;0.05613;-0.492667;-0.0502448;2.075
0.435545;-0.998432;-0.309201;-0.780495;0.143252;1.01674;0.05613;-0.492667;-0.0502448;2.08
0.435545;-0.998432;-0.309201;-0.780495;0.143252;1.01674;0.05613;-0.492667;-0.0502448;2.085
0.435545;-0.998432;-0.309201;-0.780495;0.143252;1.01674;0.05613;-0.492667;-0.0502448;2.09
0.886579;-0.923427;0.0105116;-0.779558;0.134727;1.01589;0.061628;-0.515515;-0.048627;2.095
0.886579;-0.923427;0.0105116;-0.779558;0.134727;1.01589;0.061628;-0.515515;-0.048627;2.1
0.73897;-1.06166;0.842941;-0.778341;0.125981;1.01509;0.0685039;-0.540662;-0.0378704;2.105
0.73897;-1.06166;0.842941;-0.778341;0.125981;1.01509;0.0685039;-0.540662;-0.0378704;2.11
0.73897;-1.06166;0.842941;-0.778341;0.125981;1.01509;0.0685039;-0.540662;-0.0378704;2.115
0.73897;-1.06166;0.842941;-0.778341;0.125981;1.01509;0.0685039;-0.540662;-0.0378704;2.12
0.346665;-1.41906;0.779674;-0.776936;0.116975;1.01438;0.0761842;-0.561459;-0.0216876;2.125
0.346665;-1.41906;0.779674;-0.776936;0.116975;1.01438;0.0761842;-0.561459;-0.0216876;2.13
0.346665;-1.41906;0.779674;-0.776936;0.116975;1.01438;0.0761842;-0.561459;-0.0216876;2.135
0.541176;-1.56236;1.17776;-0.775533;0.107612;1.01401;0.0798856;-0.58243;-0.00202447;2.14
0.541176;-1.56236;1.17776;-0.775533;0.107612;1.01401;0.0798856;-0.58243;-0.00202447;2.145
0.541176;-1.56236;1.17776;-0.775533;0.107612;1.01401;0.0798856;-0.58243;-0.00202447;2.15
0.440222;-1.55286;1.87927;-0.774214;0.0978483;1.0141;0.0713534;-0.598026;0.0208659;2.155
0.440222;-1.55286;1.87927;-0.774214;0.0978483;1.0141;0.0713534;-0.598026;0.0208659;2.16
0.440222;-1.55286;1.87927;-0.774214;0.0978483;1.0141;0.0713534;-0.598026;0.0208659;2.165
0.440222;-1.55286;1.87927;-0.774214;0.0978483;1.0141;0.0713534;-0.598026;0.0208659;2.17
-0.344981;-1.0336;1.30864;-0.772897;0.0877271;1.01454;0.0782797;-0.616406;0.0451503;2.175
-0.344981;-1.0336;1.30864;-0.772897;0.0877271;1.01454;0.0782797;-0.616406;0.0451503;2.18
-0.344981;-1.0336;1.30864;-0.772897;0.0877271;1.01454;0.0782797;-0.616406;0.0451503;2.185
-0.344981;-1.0336;1.30864;-0.772897;0.0877271;1.01454;0.0782797;-0.616406;0.0451503;2.19
-0.150105;-0.796765;0.840376;-0.771528;0.0772842;1.01522;0.0790986;-0.63317;0.0627359;2.195
-0.150105;-0.796765;0.840376;-0.771528;0.0772842;1.01522;0.0790986;-0.63317;0.0627359;2.2
-0.180268;-1.08601;0.787518;-0.770095;0.0664715;1.01621;0.0752803;-0.642385;0.0677222;2.205
-0.180268;-1.08601;0.787518;-0.770095;0.0664715;1.01621;0.0752803;-0.642385;0.0677222;2.21
-0.180268;-1.08601;0.787518;-0.770095;0.0664715;1.01621;0.0752803;-0.642385;0.0677222;2.215
-0.180268;-1.08601;0.787518;-0.770095;0.0664715;1.01621;0.0752803;-0.642385;0.0677222;2.22
-0.0801941;-0.657574;-0.0635859;-0.768614;0.0553356;1.01746;0.0868212;-0.657642;0.0668288;2.225
-0.0801941;-0.657574;-0.0635859;-0.768614;0.0553356;1.01746;0.0868212;-0.657642;0.0668288;2.23
-0.0801941;-0.657574;-0.0635859;-0.768614;0.0553356;1.01746;0.0868212;-0.657642;0.0668288;2.235
0.589585;-0.31282;-0.518888;-0.767072;0.0440559;1.01867;0.0893051;-0.672881;0.065298;2.24
0.589585;-0.31282;-0.518888;-0.767072;0.0440559;1.01867;0.0893051;-0.672881;0.065298;2.245
0.589585;-0.31282;-0.518888;-0.767072;0.0440559;1.01867;0.0893051;-0.672881;0.065298;2.25
0.516001;-0.53065;-0.448856;-0.765417;0.0326031;1.01978;0.0880456;-0.687332;0.0634213;2.255
0.516001;-0.53065;-0.448856;-0.765417;0.0326031;1.01978;0.0880456;-0.687332;0.0634213;2.26
0.516001;-0.53065;-0.448856;-0.765417;0.0326031;1.01978;0.0880456;-0.687332;0.0634213;2.265
0.516001;-0.53065;-0.448856;-0.765417;0.0326031;1.01978;0.0880456;-0.687332;0.0634213;2.27
-0.0131731;-0.659147;-0.182318;-0.763695;0.0210104;1.02085;0.0933776;-0.69995;0.0589329;2.275
-0.0131731;-0.659147;-0.182318;-0.763695;0.0210104;1.02085;0.0933776;-0.69995;0.0589329;2.28
-0.0131731;-0.659147;-0.182318;-0.763695;0.0210104;1.02085;0.0933776;-0.69995;0.0589329;2.285
-0.174067;-0.46106;0.0498595;-0.762039;0.00955132;1.02181;0.09487;-0.707646;0.0539011;2.29
-0.174067;-0.46106;0.0498595;-0.762039;0.00955132;1.02181;0.09487;-0.707646;0.0539011;2.295
-0.174067;-0.46106;0.0498595;-0.762039;0.00955132;1.02181;0.09487;-0.707646;0.0539011;2.3
-0.243059;-0.026198;-0.168458;-0.760491;-0.00163628;1.02259;0.0922644;-0.711363;0.0490484;2.305
-0.243059;-0.026198;-0.168458;-0.760491;-0.00163628;1.02259;0.0922644;-0.711363;0.0490484;2.31
-0.243059;-0.026198;-0.168458;-0.760491;-0.00163628;1.02259;0.0922644;-0.711363;0.0490484;2.315
-0.243059;-0.026198;-0.168458;-0.760491;-0.00163628;1.02259;0.0922644;-0.711363;0.0490484;2.32
-0.179966;0.122329;-0.394479;-0.759007;-0.0126916;1.02325;0.0804638;-0.708042;0.0435767;2.325
-0.179966;0.122329;-0.394479;-0.759007;-0.0126916;1.02325;0.0804638;-0.708042;0.0435767;2.33
-0.179966;0.122329;-0.394479;-0.759007;-0.0126916;1.02325;0.0804638;-0.708042;0.0435767;2.335
-0.179966;0.122329;-0.394479;-0.759007;-0.0126916;1.02325;0.0804638;-0.708042;0.0435767;2.34
-0.344335;-0.229738;-0.444238;-0.757589;-0.0237601;1.02387;0.0682572;-0.699549;0.0360061;2.345
-0.344335;-0.229738;-0.444238;-0.757589;-0.0237601;1.02387;0.0682572;-0.699549;0.0360061;2.35
-0.520147;0.0578193;-1.12761;-0.756223;-0.0349215;1.02448;0.0521468;-0.700197;0.0196541;2.355
-0.520147;0.0578193;-1.12761;-0.756223;-0.0349215;1.02448;0.0521468;-0.700197;0.0196541;2.36
-0.520147;0.0578193;-1.12761;-0.756223;-0.0349215;1.02448;0.0521468;-0.700197;0.0196541;2.365
-0.520147;0.0578193;-1.12761;-0.756223;-0.0349215;1.02448;0.0521468;-0.700197;0.0196541;2.37
-0.259634;0.556559;-0.833379;-0.754924;-0.0461029;1.02508;0.0380352;-0.692351;0.0114674;2.375
-0.259634;0.556559;-0.833379;-0.754924;-0.0461029;1.02508;0.0380352;-0.692351;0.0114674;2.38
-0.259634;0.556559;-0.833379;-0.754924;-0.0461029;1.02508;0.0380352;-0.692351;0.0114674;2.385
-0.259634;0.556559;-0.833379;-0.754924;-0.0461029;1.02508;0.0380352;-0.692351;0.0114674;2.39
-0.0540347;0.400979;0.239468;-0.753736;-0.0572204;1.02565;0.0325806;-0.675768;0.017418;2.395
-0.0540347;0.400979;0.239468;-0.753736;-0.0572204;1.02565;0.0325806;-0.675768;0.017418;2.4
-0.150051;0.501433;0.352074;-0.752695;-0.0682812;1.02614;0.0264;-0.666191;0.0231349;2.405
-0.150051;0.501433;0.352074;-0.752695;-0.0682812;1.02614;0.0264;-0.666191;0.0231349;2.41
-0.150051;0.501433;0.352074;-0.752695;-0.0682812;1.02614;0.0264;-0.666191;0.0231349;2.415
-0.150051;0.501433;0.352074;-0.752695;-0.0682812;1.02614;0.0264;-0.666191;0.0231349;2.42
-0.307295;0.514305;0.428233;-0.751758;-0.0792796;1.02661;0.0193254;-0.654149;0.0329044;2.425
-0.307295;0.514305;0.428233;-0.751758;-0.0792796;1.02661;0.0193254;-0.654149;0.0329044;2.43
-0.307295;0.514305;0.428233;-0.751758;-0.0792796;1.02661;0.0193254;-0.654149;0.0329044;2.435
-0.227401;0.663277;0.389695;-0.750859;-0.0901047;1.02719;0.0118672;-0.641807;0.0412991;2.44
-0.227401;0.663277;0.389695;-0.750859;-0.0901047;1.02719;0.0118672;-0.641807;0.0412991;2.445
-0.227401;0.663277;0.389695;-0.750859;-0.0901047;1.02719;0.0118672;-0.641807;0.0412991;2.45
-0.416945;0.435926;0.319191;-0.749963;-0.100699;1.02795;0.00833118;-0.627773;0.0468905;2.455
-0.416945;0.435926;0.319191;-0.749963;-0.100699;1.02795;0.00833118;-0.627773;0.0468905;2.46
-0.416945;0.435926;0.319191;-0.749963;-0.100699;1.02795;0.00833118;-0.627773;0.0468905;2.465
-0.416945;0.435926;0.319191;-0.749963;-0.100699;1.02795;0.00833118;-0.627773;0.0468905;2.47
-0.26533;0.830268;0.0986817;-0.749117;-0.111111;1.02881;0.00575709;-0.617294;0.0534455;2.475
-0.26533;0.830268;0.0986817;-0.749117;-0.111111;1.02881;0.00575709;-0.617294;0.0534455;2.48
-0.26533;0.830268;0.0986817;-0.749117;-0.111111;1.02881;0.00575709;-0.617294;0.0534455;2.485
-0.521472;0.453794;0.323941;-0.74838;-0.121391;1.02968;0.00851804;-0.602557;0.0584643;2.49
-0.521472;0.453794;0.323941;-0.74838;-0.121391;1.02968;0.00851804;-0.602557;0.0584643;2.495
-0.521472;0.453794;0.323941;-0.74838;-0.121391;1.02968;0.00851804;-0.602557;0.0584643;2.5
-0.307225;0.807238;0.315496;-0.747803;-0.13156;1.03056;0.0101001;-0.59077;0.0630801;2.505
-0.307225;0.807238;0.315496;-0.747803;-0.13156;1.03056;0.0101001;-0.59077;0.0630801;2.51
-0.307225;0.807238;0.315496;-0.747803;-0.13156;1.03056;0.0101001;-0.59077;0.0630801;2.515
-0.307225;0.807238;0.315496;-0.747803;-0.13156;1.03056;0.0101001;-0.59077;0.0630801;2.52
-0.331632;0.630104;0.1674;-0.747337;-0.141596;1.03146;0.00597269;-0.579817;0.0660534;2.525
-0.331632;0.630104;0.1674;-0.747337;-0.141596;1.03146;0.00597269;-0.579817;0.0660534;2.53
-0.331632;0.630104;0.1674;-0.747337;-0.141596;1.03146;0.00597269;-0.579817;0.0660534;2.535
-0.331632;0.630104;0.1674;-0.747337;-0.141596;1.03146;0.00597269;-0.579817;0.0660534;2.54
-0.21975;0.629981;-0.213256;-0.746892;-0.151475;1.03229;0.00626583;-0.574313;0.0642856;2.545
-0.21975;0.629981;-0.213256;-0.746892;-0.151475;1.03229;0.00626583;-0.574313;0.0642856;2.55
-0.239684;0.601913;-0.269551;-0.746424;-0.161189;1.03306;0.00522799;-0.566167;0.0606167;2.555
-0.239684;0.601913;-0.269551;-0.746424;-0.161189;1.03306;0.00522799;-0.566167;0.0606167;2.56
-0.239684;0.601913;-0.269551;-0.746424;-0.161189;1.03306;0.00522799;-0.566167;0.0606167;2.565
-0.239684;0.601913;-0.269551;-0.746424;-0.161189;1.03306;0.00522799;-0.566167;0.0606167;2.57
-0.15011;0.414145;-0.347231;-0.745976;-0.170752;1.03378;0.00401375;-0.555468;0.0540179;2.575
-0.15011;0.414145;-0.347231;-0.745976;-0.170752;1.03378;0.00401375;-0.555468;0.0540179;2.58
-0.15011;0.414145;-0.347231;-0.745976;-0.170752;1.03378;0.00401375;-0.555468;0.0540179;2.585
-0.154106;0.466928;-0.414084;-0.745579;-0.180183;1.03438;0.0033299;-0.547454;0.0456928;2.59
-0.154106;0.466928;-0.414084;-0.745579;-0.180183;1.03438;0.0033299;-0.547454;0.0456928;2.595
-0.154106;0.466928;-0.414084;-0.745579;-0.180183;1.03438;0.0033299;-0.547454;0.0456928;2.6
-0.285709;0.571968;-0.517286;-0.745238;-0.189479;1.03485;0.00217425;-0.539644;0.0360276;2.605
-0.285709;0.571968;-0.517286;-0.745238;-0.189479;1.03485;0.00217425;-0.539644;0.0360276;2.61
-0.285709;0.571968;-0.517286;-0.745238;-0.189479;1.03485;0.00217425;-0.539644;0.0360276;2.615
-0.285709;0.571968;-0.517286;-0.745238;-0.189479;1.03485;0.00217425;-0.539644;0.0360276;2.62
-0.182055;0.453216;-0.583724;-0.744934;-0.198651;1.03519;0.00302707;-0.532543;0.0253958;2.625
-0.182055;0.453216;-0.583724;-0.744934;-0.198651;1.03519;0.00302707;-0.532543;0.0253958;2.63
-0.182055;0.453216;-0.583724;-0.744934;-0.198651;1.03519;0.00302707;-0.532543;0.0253958;2.635
-0.182055;0.453216;-0.583724;-0.744934;-0.198651;1.03519;0.00302707;-0.532543;0.0253958;2.64
-0.176923;0.546287;-0.616653;-0.74467;-0.207739;1.03541;0.00106329;-0.527953;0.0150769;2.645
-0.176923;0.546287;-0.616653;-0.74467;-0.207739;1.03541;0.00106329;-0.527953;0.0150769;2.65
-0.176923;0.546287;-0.616653;-0.74467;-0.207739;1.03541;0.00106329;-0.527953;0.0150769;2.655
-0.317331;0.467425;-0.539184;-0.744436;-0.216737;1.03547;0.00156145;-0.524584;0.0077502;2.66
-0.317331;0.467425;-0.539184;-0.744436;-0.216737;1.03547;0.00156145;-0.524584;0.0077502;2.665
-0.317331;0.467425;-0.539184;-0.744436;-0.216737;1.03547;0.00156145;-0.524584;0.0077502;2.67
-0.0382289;0.119037;-0.43388;-0.744253;-0.225654;1.0354;0.00201117;-0.520131;0.00097778;2.675
-0.0382289;0.119037;-0.43388;-0.744253;-0.225654;1.0354;0.00201117;-0.520131;0.00097778;2.68
-0.0382289;0.119037;-0.43388;-0.744253;-0.225654;1.0354;0.00201117;-0.520131;0.00097778;2.685
-0.158772;0.230065;-0.276101;-0.744178;-0.234543;1.03526;0.00351809;-0.516839;-0.00539065;2.69
-0.158772;0.230065;-0.276101;-0.744178;-0.234543;1.03526;0.00351809;-0.516839;-0.00539065;2.695
-0.158772;0.230065;-0.276101;-0.744178;-0.234543;1.03526;0.00351809;-0.516839;-0.00539065;2.7
-0.445778;0.271124;-0.20617;-0.744235;-0.243426;1.03505;0.00430943;-0.514489;-0.00987043;2.705
-0.445778;0.271124;-0.20617;-0.744235;-0.243426;1.03505;0.00430943;-0.514489;-0.00987043;2.71
-0.445778;0.271124;-0.20617;-0.744235;-0.243426;1.03505;0.00430943;-0.514489;-0.00987043;2.715
-0.445778;0.271124;-0.20617;-0.744235;-0.243426;1.03505;0.00430943;-0.514489;-0.00987043;2.72
-0.336724;0.106619;-0.254348;-0.744406;-0.252277;1.03477;0.00140111;-0.513268;-0.0128986;2.725
-0.336724;0.106619;-0.254348;-0.744406;-0.252277;1.03477;0.00140111;-0.513268;-0.0128986;2.73
-0.336724;0.106619;-0.254348;-0.744406;-0.252277;1.03477;0.00140111;-0.513268;-0.0128986;2.735
-0.157141;0.107832;-0.278417;-0.74468;-0.261082;1.0344;-0.00497406;-0.511776;-0.0171518;2.74
-0.157141;0.107832;-0.278417;-0.74468;-0.261082;1.0344;-0.00497406;-0.511776;-0.0171518;2.745
-0.157141;0.107832;-0.278417;-0.74468;-0.261082;1.0344;-0.00497406;-0.511776;-0.0171518;2.75
-0.293249;0.163795;-0.378328;-0.745049;-0.269823;1.03395;-0.0116035;-0.509902;-0.0233942;2.755
-0.293249;0.163795;-0.378328;-0.745049;-0.269823;1.03395;-0.0116035;-0.509902;-0.0233942;2.76
-0.293249;0.163795;-0.378328;-0.745049;-0.269823;1.03395;-0.0116035;-0.509902;-0.0233942;2.765
-0.293249;0.163795;-0.378328;-0.745049;-0.269823;1.03395;-0.0116035;-0.509902;-0.0233942;2.77
-0.394928;0.243818;-0.385417;-0.745515;-0.278515;1.0334;-0.0189124;-0.507292;-0.0304022;2.775
-0.394928;0.243818;-0.385417;-0.745515;-0.278515;1.0334;-0.0189124;-0.507292;-0.0304022;2.78
-0.394928;0.243818;-0.385417;-0.745515;-0.278515;1.0334;-0.0189124;-0.507292;-0.0304022;2.785
-0.394928;0.243818;-0.385417;-0.745515;-0.278515;1.0334;-0.0189124;-0.507292;-0.0304022;2.79
-0.455301;0.254462;-0.423856;-0.746078;-0.287188;1.03279;-0.0253061;-0.505534;-0.0364868;2.795
-0.455301;0.254462;-0.423856;-0.746078;-0.287188;1.03279;-0.0253061;-0.505534;-0.0364868;2.8
-0.455301;0.254462;-0.423856;-0.746078;-0.287188;1.03279;-0.0253061;-0.505534;-0.0364868;2.805
-0.35736;-0.0558113;-0.299734;-0.746735;-0.295821;1.03209;-0.0302233;-0.506064;-0.0407146;2.81
-0.35736;-0.0558113;-0.299734;-0.746735;-0.295821;1.03209;-0.0302233;-0.506064;-0.0407146;2.815
-0.35736;-0.0558113;-0.299734;-0.746735;-0.295821;1.03209;-0.0302233;-0.506064;-0.0407146;2.82
-0.314897;-0.186992;-0.244497;-0.747489;-0.304435;1.03132;-0.0341893;-0.509118;-0.0440068;2.825
-0.314897;-0.186992;-0.244497;-0.747489;-0.304435;1.03132;-0.0341893;-0.509118;-0.0440068;2.83
-0.314897;-0.186992;-0.244497;-0.747489;-0.304435;1.03132;-0.0341893;-0.509118;-0.0440068;2.835
-0.314897;-0.186992;-0.244497;-0.747489;-0.304435;1.03132;-0.0341893;-0.509118;-0.0440068;2.84
-0.274705;-0.218742;-0.209252;-0.74836;-0.313119;1.0305;-0.0398497;-0.513873;-0.047316;2.845
-0.274705;-0.218742;-0.209252;-0.74836;-0.313119;1.0305;-0.0398497;-0.513873;-0.047316;2.85
-0.319561;-0.353527;-0.180389;-0.749334;-0.321882;1.02962;-0.0479727;-0.519703;-0.0513383;2.855
-0.319561;-0.353527;-0.180389;-0.749334;-0.321882;1.02962;-0.0479727;-0.519703;-0.0513383;2.86
-0.319561;-0.353527;-0.180389;-0.749334;-0.321882;1.02962;-0.0479727;-0.519703;-0.0513383;2.865
-0.319561;-0.353527;-0.180389;-0.749334;-0.321882;1.02962;-0.0479727;-0.519703;-0.0513383;2.87
-0.605606;-0.393332;-0.230668;-0.750425;-0.330716;1.02868;-0.0581504;-0.52756;-0.0548676;2.875
-0.605606;-0.393332;-0.230668;-0.750425;-0.330716;1.02868;-0.0581504;-0.52756;-0.0548676;2.88
-0.605606;-0.393332;-0.230668;-0.750425;-0.330716;1.02868;-0.0581504;-0.52756;-0.0548676;2.885
-0.701724;-0.405953;-0.157039;-0.751695;-0.339687;1.02772;-0.0687027;-0.537034;-0.0576005;2.89
-0.701724;-0.405953;-0.157039;-0.751695;-0.339687;1.02772;-0.0687027;-0.537034;-0.0576005;2.895
-0.701724;-0.405953;-0.157039;-0.751695;-0.339687;1.02772;-0.0687027;-0.537034;-0.0576005;2.9
-0.571132;-0.0185136;-1.19362;-0.75319;-0.348782;1.02673;-0.0783248;-0.554974;-0.0601835;2.905
-0.571132;-0.0185136;-1.19362;-0.75319;-0.348782;1.02673;-0.0783248;-0.554974;-0.0601835;2.91
-0.571132;-0.0185136;-1.19362;-0.75319;-0.348782;1.02673;-0.0783248;-0.554974;-0.0601835;2.915
-0.571132;-0.0185136;-1.19362;-0.75319;-0.348782;1.02673;-0.0783248;-0.554974;-0.0601835;2.92
-0.638603;-0.46231;-1.28865;-0.754869;-0.358018;1.02572;-0.0895504;-0.563037;-0.0610606;2.925
-0.638603;-0.46231;-1.28865;-0.754869;-0.358018;1.02572;-0.0895504;-0.563037;-0.0610606;2.93
-0.638603;-0.46231;-1.28865;-0.754869;-0.358018;1.02572;-0.0895504;-0.563037;-0.0610606;2.935
-0.638603;-0.46231;-1.28865;-0.754869;-0.358018;1.02572;-0.0895504;-0.563037;-0.0610606;2.94
-0.553213;-1.08695;-0.223198;-0.756662;-0.367501;1.02468;-0.100631;-0.564459;-0.0606619;2.945
-0.553213;-1.08695;-0.223198;-0.756662;-0.367501;1.02468;-0.100631;-0.564459;-0.0606619;2.95
-0.217713;-0.93278;0.00356081;-0.758536;-0.377261;1.02362;-0.105788;-0.583131;-0.0613298;2.955
-0.217713;-0.93278;0.00356081;-0.758536;-0.377261;1.02362;-0.105788;-0.583131;-0.0613298;2.96
-0.217713;-0.93278;0.00356081;-0.758536;-0.377261;1.02362;-0.105788;-0.583131;-0.0613298;2.965
-0.217713;-0.93278;0.00356081;-0.758536;-0.377261;1.02362;-0.105788;-0.583131;-0.0613298;2.97
-0.302917;-1.24135;0.175722;-0.760523;-0.387272;1.02254;-0.10432;-0.60442;-0.0618105;2.975
-0.302917;-1.24135;0.175722;-0.760523;-0.387272;1.02254;-0.10432;-0.60442;-0.0618105;2.98
-0.302917;-1.24135;0.175722;-0.760523;-0.387272;1.02254;-0.10432;-0.60442;-0.0618105;2.985
-0.302917;-1.24135;0.175722;-0.760523;-0.387272;1.02254;-0.10432;-0.60442;-0.0618105;2.99
-0.218339;-0.988751;-0.0642477;-0.762645;-0.397558;1.02146;-0.112288;-0.624703;-0.0601718;2.995
-0.218339;-0.988751;-0.0642477;-0.762645;-0.397558;1.02146;-0.112288;-0.624703;-0.0601718;3
-0.482336;-0.721012;-0.388883;-0.764885;-0.408126;1.0203;-0.128457;-0.638472;-0.0582537;3.005
-0.482336;-0.721012;-0.388883;-0.764885;-0.408126;1.0203;-0.128457;-0.638472;-0.0582537;3.01
-0.482336;-0.721012;-0.388883;-0.764885;-0.408126;1.0203;-0.128457;-0.638472;-0.0582537;3.015
-0.482336;-0.721012;-0.388883;-0.764885;-0.408126;1.0203;-0.128457;-0.638472;-0.0582537;3.02
-1.12402;-0.612974;0.2164;-0.767266;-0.418966;1.01914;-0.143537;-0.649444;-0.0565546;3.025
-1.12402;-0.612974;0.2164;-0.767266;-0.418966;1.01914;-0.143537;-0.649444;-0.0565546;3.03
-1.12402;-0.612974;0.2164;-0.767266;-0.418966;1.01914;-0.143537;-0.649444;-0.0565546;3.035
-0.926034;-0.885796;0.888628;-0.769872;-0.430068;1.0182;-0.155214;-0.667326;-0.0454415;3.04
-0.926034;-0.885796;0.888628;-0.769872;-0.430068;1.0182;-0.155214;-0.667326;-0.0454415;3.045
-0.926034;-0.885796;0.888628;-0.769872;-0.430068;1.0182;-0.155214;-0.667326;-0.0454415;3.05
-0.571155;-1.30234;0.921241;-0.772791;-0.44141;1.01754;-0.181207;-0.692116;-0.0222426;3.055
-0.571155;-1.30234;0.921241;-0.772791;-0.44141;1.01754;-0.181207;-0.692116;-0.0222426;3.06
-0.571155;-1.30234;0.921241;-0.772791;-0.44141;1.01754;-0.181207;-0.692116;-0.0222426;3.065
-0.571155;-1.30234;0.921241;-0.772791;-0.44141;1.01754;-0.181207;-0.692116;-0.0222426;3.07
-0.60805;-1.65464;1.3432;-0.775934;-0.453013;1.0171;-0.192295;-0.722411;0.0089375;3.075
-0.60805;-1.65464;1.3432;-0.775934;-0.453013;1.0171;-0.192295;-0.722411;0.0089375;3.08
-0.60805;-1.65464;1.3432;-0.775934;-0.453013;1.0171;-0.192295;-0.722411;0.0089375;3.085
-0.721171;-1.65817;2.13136;-0.779123;-0.464932;1.01698;-0.177572;-0.738721;0.0338034;3.09
-0.721171;-1.65817;2.13136;-0.779123;-0.464932;1.01698;-0.177572;-0.738721;0.0338034;3.095
-0.721171;-1.65817;2.13136;-0.779123;-0.464932;1.01698;-0.177572;-0.738721;0.0338034;3.1
0.431766;-0.677767;1.25614;-0.782316;-0.477262;1.01726;-0.179523;-0.756001;0.0536378;3.105
0.431766;-0.677767;1.25614;-0.782316;-0.477262;1.01726;-0.179523;-0.756001;0.0536378;3.11
0.431766;-0.677767;1.25614;-0.782316;-0.477262;1.01726;-0.179523;-0.756001;0.0536378;3.115
0.431766;-0.677767;1.25614;-0.782316;-0.477262;1.01726;-0.179523;-0.756001;0.0536378;3.12
0.445674;-0.607431;0.929262;-0.785558;-0.489909;1.01788;-0.174499;-0.765892;0.0683498;3.125
0.445674;-0.607431;0.929262;-0.785558;-0.489909;1.01788;-0.174499;-0.765892;0.0683498;3.13
0.445674;-0.607431;0.929262;-0.785558;-0.489909;1.01788;-0.174499;-0.765892;0.0683498;3.135
0.445674;-0.607431;0.929262;-0.785558;-0.489909;1.01788;-0.174499;-0.765892;0.0683498;3.14
0.0876229;-0.607965;0.413843;-0.788798;-0.502639;1.01867;-0.164444;-0.771908;0.0732204;3.145
0.0876229;-0.607965;0.413843;-0.788798;-0.502639;1.01867;-0.164444;-0.771908;0.0732204;3.15
-0.0702541;-0.0764761;-0.390932;-0.792038;-0.515431;1.01969;-0.165063;-0.779637;0.0626625;3.155
-0.0702541;-0.0764761;-0.390932;-0.792038;-0.515431;1.01969;-0.165063;-0.779637;0.0626625;3.16
-0.0702541;-0.0764761;-0.390932;-0.792038;-0.515431;1.01969;-0.165063;-0.779637;0.0626625;3.165
-0.0702541;-0.0764761;-0.390932;-0.792038;-0.515431;1.01969;-0.165063;-0.779637;0.0626625;3.17
0.0505841;-0.514909;-0.882597;-0.795265;-0.528306;1.02092;-0.175281;-0.781719;0.0426824;3.175
0.0505841;-0.514909;-0.882597;-0.795265;-0.528306;1.02092;-0.175281;-0.781719;0.0426824;3.18
0.0505841;-0.514909;-0.882597;-0.795265;-0.528306;1.02092;-0.175281;-0.781719;0.0426824;3.185
0.159132;-0.275813;-0.822314;-0.798407;-0.541092;1.02202;-0.178559;-0.783102;0.0274256;3.19
0.159132;-0.275813;-0.822314;-0.798407;-0.541092;1.02202;-0.178559;-0.783102;0.0274256;3.195
0.159132;-0.275813;-0.822314;-0.798407;-0.541092;1.02202;-0.178559;-0.783102;0.0274256;3.2
0.529967;-0.113125;-0.134664;-0.801456;-0.553768;1.02288;-0.1734;-0.774491;0.0216244;3.205
0.529967;-0.113125;-0.134664;-0.801456;-0.553768;1.02288;-0.1734;-0.774491;0.0216244;3.21
0.529967;-0.113125;-0.134664;-0.801456;-0.553768;1.02288;-0.1734;-0.774491;0.0216244;3.215
0.529967;-0.113125;-0.134664;-0.801456;-0.553768;1.02288;-0.1734;-0.774491;0.0216244;3.22
0.262746;0.675103;-0.102753;-0.804413;-0.56636;1.02365;-0.164106;-0.763732;0.0225372;3.225
0.262746;0.675103;-0.102753;-0.804413;-0.56636;1.02365;-0.164106;-0.763732;0.0225372;3.23
0.262746;0.675103;-0.102753;-0.804413;-0.56636;1.02365;-0.164106;-0.763732;0.0225372;3.235
0.262746;0.675103;-0.102753;-0.804413;-0.56636;1.02365;-0.164106;-0.763732;0.0225372;3.24
0.33288;0.579619;-0.117513;-0.807217;-0.578765;1.02437;-0.152892;-0.751998;0.0245868;3.245
0.33288;0.579619;-0.117513;-0.807217;-0.578765;1.02437;-0.152892;-0.751998;0.0245868;3.25
0.40795;0.689356;-0.0385947;-0.809885;-0.590947;1.02503;-0.142986;-0.740589;0.0260253;3.255
0.40795;0.689356;-0.0385947;-0.809885;-0.590947;1.02503;-0.142986;-0.740589;0.0260253;3.26
0.40795;0.689356;-0.0385947;-0.809885;-0.590947;1.02503;-0.142986;-0.740589;0.0260253;3.265
0.40795;0.689356;-0.0385947;-0.809885;-0.590947;1.02503;-0.142986;-0.740589;0.0260253;3.27
0.769208;0.552817;0.105384;-0.81241;-0.602938;1.02565;-0.130315;-0.727704;0.0283278;3.275
0.769208;0.552817;0.105384;-0.81241;-0.602938;1.02565;-0.130315;-0.727704;0.0283278;3.28
0.769208;0.552817;0.105384;-0.81241;-0.602938;1.02565;-0.130315;-0.727704;0.0283278;3.285
0.769208;0.552817;0.105384;-0.81241;-0.602938;1.02565;-0.130315;-0.727704;0.0283278;3.29
0.798369;0.806868;0.25518;-0.814693;-0.61473;1.0263;-0.116632;-0.713588;0.0333022;3.295
0.798369;0.806868;0.25518;-0.814693;-0.61473;1.0263;-0.116632;-0.713588;0.0333022;3.3
0.798369;0.806868;0.25518;-0.814693;-0.61473;1.0263;-0.116632;-0.713588;0.0333022;3.305
0.790788;0.699754;0.562642;-0.81668;-0.626308;1.02699;-0.106127;-0.698589;0.0428307;3.31
0.790788;0.699754;0.562642;-0.81668;-0.626308;1.02699;-0.106127;-0.698589;0.0428307;3.315
0.790788;0.699754;0.562642;-0.81668;-0.626308;1.02699;-0.106127;-0.698589;0.0428307;3.32
0.663778;0.932142;0.4318;-0.818415;-0.637683;1.0277;-0.0979242;-0.683991;0.0554595;3.325
0.663778;0.932142;0.4318;-0.818415;-0.637683;1.0277;-0.0979242;-0.683991;0.0554595;3.33
0.663778;0.932142;0.4318;-0.818415;-0.637683;1.0277;-0.0979242;-0.683991;0.0554595;3.335
0.565202;0.915722;0.676406;-0.819953;-0.648881;1.02845;-0.0890657;-0.668995;0.0654858;3.34
0.565202;0.915722;0.676406;-0.819953;-0.648881;1.02845;-0.0890657;-0.668995;0.0654858;3.345
0.565202;0.915722;0.676406;-0.819953;-0.648881;1.02845;-0.0890657;-0.668995;0.0654858;3.35
0.306375;0.929505;0.510518;-0.821272;-0.659908;1.02925;-0.0790957;-0.652768;0.0701011;3.355
0.306375;0.929505;0.510518;-0.821272;-0.659908;1.02925;-0.0790957;-0.652768;0.0701011;3.36
0.306375;0.929505;0.510518;-0.821272;-0.659908;1.02925;-0.0790957;-0.652768;0.0701011;3.365
0.306375;0.929505;0.510518;-0.821272;-0.659908;1.02925;-0.0790957;-0.652768;0.0701011;3.37
0.427771;0.789141;0.15943;-0.822401;-0.670762;1.03008;-0.0688013;-0.63658;0.0716285;3.375
0.427771;0.789141;0.15943;-0.822401;-0.670762;1.03008;-0.0688013;-0.63658;0.0716285;3.38
0.427771;0.789141;0.15943;-0.822401;-0.670762;1.03008;-0.0688013;-0.63658;0.0716285;3.385
0.427771;0.789141;0.15943;-0.822401;-0.670762;1.03008;-0.0688013;-0.63658;0.0716285;3.39
0.419476;0.847078;-0.173318;-0.823478;-0.681463;1.0309;-0.0619475;-0.625741;0.0703825;3.395
0.419476;0.847078;-0.173318;-0.823478;-0.681463;1.0309;-0.0619475;-0.625741;0.0703825;3.4
0.580652;0.815485;-0.366082;-0.824567;-0.691996;1.03176;-0.0544732;-0.620258;0.0659212;3.405
0.580652;0.815485;-0.366082;-0.824567;-0.691996;1.03176;-0.0544732;-0.620258;0.0659212;3.41
0.580652;0.815485;-0.366082;-0.824567;-0.691996;1.03176;-0.0544732;-0.620258;0.0659212;3.415
0.580652;0.815485;-0.366082;-0.824567;-0.691996;1.03176;-0.0544732;-0.620258;0.0659212;3.42
0.403431;0.441063;-0.404975;-0.825609;-0.702381;1.03261;-0.0434927;-0.614137;0.0582568;3.425
0.403431;0.441063;-0.404975;-0.825609;-0.702381;1.03261;-0.0434927;-0.614137;0.0582568;3.43
0.403431;0.441063;-0.404975;-0.825609;-0.702381;1.03261;-0.0434927;-0.614137;0.0582568;3.435
0.403431;0.441063;-0.404975;-0.825609;-0.702381;1.03261;-0.0434927;-0.614137;0.0582568;3.44
0.266613;0.10346;-0.485489;-0.826563;-0.71269;1.03329;-0.0325227;-0.606567;0.0486601;3.445
0.266613;0.10346;-0.485489;-0.826563;-0.71269;1.03329;-0.0325227;-0.606567;0.0486601;3.45
0.404513;0.421546;-0.608117;-0.827436;-0.722934;1.03376;-0.0241025;-0.603336;0.0391868;3.455
0.404513;0.421546;-0.608117;-0.827436;-0.722934;1.03376;-0.0241025;-0.603336;0.0391868;3.46
0.404513;0.421546;-0.608117;-0.827436;-0.722934;1.03376;-0.0241025;-0.603336;0.0391868;3.465
0.404513;0.421546;-0.608117;-0.827436;-0.722934;1.03376;-0.0241025;-0.603336;0.0391868;3.47
0.490604;0.388363;-0.64637;-0.828231;-0.733106;1.03407;-0.0169775;-0.597741;0.0278091;3.475
0.490604;0.388363;-0.64637;-0.828231;-0.733106;1.03407;-0.0169775;-0.597741;0.0278091;3.48
0.490604;0.388363;-0.64637;-0.828231;-0.733106;1.03407;-0.0169775;-0.597741;0.0278091;3.485
0.506103;0.257186;-0.692201;-0.828902;-0.743247;1.03422;-0.014075;-0.594179;0.0157946;3.49
0.506103;0.257186;-0.692201;-0.828902;-0.743247;1.03422;-0.014075;-0.594179;0.0157946;3.495
0.506103;0.257186;-0.692201;-0.828902;-0.743247;1.03422;-0.014075;-0.594179;0.0157946;3.5
0.357566;0.0481741;-0.641982;-0.829415;-0.753362;1.0342;-0.0125212;-0.592976;0.00355739;3.505
0.357566;0.0481741;-0.641982;-0.829415;-0.753362;1.0342;-0.0125212;-0.592976;0.00355739;3.51
0.357566;0.0481741;-0.641982;-0.829415;-0.753362;1.0342;-0.0125212;-0.592976;0.00355739;3.515
0.357566;0.0481741;-0.641982;-0.829415;-0.753362;1.0342;-0.0125212;-0.592976;0.00355739;3.52
0.227442;0.0379161;-0.631009;-0.829792;-0.763451;1.03402;-0.0109689;-0.594399;-0.00771247;3.525
0.227442;0.0379161;-0.631009;-0.829792;-0.763451;1.03402;-0.0109689;-0.594399;-0.00771247;3.53
0.227442;0.0379161;-0.631009;-0.829792;-0.763451;1.03402;-0.0109689;-0.594399;-0.00771247;3.535
0.227442;0.0379161;-0.631009;-0.829792;-0.763451;1.03402;-0.0109689;-0.594399;-0.00771247;3.54
0.371445;0.0601023;-0.566444;-0.830061;-0.773546;1.03374;-0.00983895;-0.596706;-0.0164554;3.545
0.371445;0.0601023;-0.566444;-0.830061;-0.773546;1.03374;-0.00983895;-0.596706;-0.0164554;3.55
0.371445;0.0601023;-0.566444;-0.830061;-0.773546;1.03374;-0.00983895;-0.596706;-0.0164554;3.555
0.268354;0.108933;-0.3577;-0.830226;-0.783645;1.03334;-0.00719114;-0.597565;-0.0222403;3.56
0.268354;0.108933;-0.3577;-0.830226;-0.783645;1.03334;-0.00719114;-0.597565;-0.0222403;3.565
0.268354;0.108933;-0.3577;-0.830226;-0.783645;1.03334;-0.00719114;-0.597565;-0.0222403;3.57
0.397266;0.104214;-0.365915;-0.830273;-0.793749;1.03284;-0.00367098;-0.598536;-0.026254;3.575
0.397266;0.104214;-0.365915;-0.830273;-0.793749;1.03284;-0.00367098;-0.598536;-0.026254;3.58
0.397266;0.104214;-0.365915;-0.830273;-0.793749;1.03284;-0.00367098;-0.598536;-0.026254;3.585
0.351199;-0.159105;-0.191447;-0.830207;-0.803891;1.03226;-0.000102299;-0.599043;-0.0309984;3.59
0.351199;-0.159105;-0.191447;-0.830207;-0.803891;1.03226;-0.000102299;-0.599043;-0.0309984;3.595
0.351199;-0.159105;-0.191447;-0.830207;-0.803891;1.03226;-0.000102299;-0.599043;-0.0309984;3.6
0.351199;-0.159105;-0.191447;-0.830207;-0.803891;1.03226;-0.000102299;-0.599043;-0.0309984;3.605
0.301912;-0.341893;-0.270449;-0.830028;-0.814078;1.03162;0.00393097;-0.60022;-0.0370144;3.61
0.301912;-0.341893;-0.270449;-0.830028;-0.814078;1.03162;0.00393097;-0.60022;-0.0370144;3.615
0.301912;-0.341893;-0.270449;-0.830028;-0.814078;1.03162;0.00393097;-0.60022;-0.0370144;3.62
0.323318;-0.211648;-0.41318;-0.829738;-0.8243;1.03089;0.00850561;-0.603782;-0.0430477;3.625
0.323318;-0.211648;-0.41318;-0.829738;-0.8243;1.03089;0.00850561;-0.603782;-0.0430477;3.63
0.323318;-0.211648;-0.41318;-0.829738;-0.8243;1.03089;0.00850561;-0.603782;-0.0430477;3.635
0.293133;-0.0429462;-0.418789;-0.829353;-0.834566;1.03008;0.0148997;-0.608205;-0.0491769;3.64
0.293133;-0.0429462;-0.418789;-0.829353;-0.834566;1.03008;0.0148997;-0.608205;-0.0491769;3.645
0.293133;-0.0429462;-0.418789;-0.829353;-0.834566;1.03008;0.0148997;-0.608205;-0.0491769;3.65
0.405855;-0.146973;-0.405697;-0.828902;-0.844865;1.02918;0.0189954;-0.611965;-0.0550983;3.655
0.405855;-0.146973;-0.405697;-0.828902;-0.844865;1.02918;0.0189954;-0.611965;-0.0550983;3.66
0.405855;-0.146973;-0.405697;-0.828902;-0.844865;1.02918;0.0189954;-0.611965;-0.0550983;3.665
0.405855;-0.146973;-0.405697;-0.828902;-0.844865;1.02918;0.0189954;-0.611965;-0.0550983;3.67
0.435545;-0.215312;-0.41;-0.828358;-0.855205;1.02819;0.0262957;-0.61516;-0.0609382;3.675
0.435545;-0.215312;-0.41;-0.828358;-0.855205;1.02819;0.0262957;-0.61516;-0.0609382;3.68
0.435545;-0.215312;-0.41;-0.828358;-0.855205;1.02819;0.0262957;-0.61516;-0.0609382;3.685
0.435545;-0.215312;-0.41;-0.828358;-0.855205;1.02819;0.0262957;-0.61516;-0.0609382;3.69
0.436064;-0.307161;-0.352589;-0.827647;-0.86563;1.02708;0.0334995;-0.618768;-0.0676974;3.695
0.436064;-0.307161;-0.352589;-0.827647;-0.86563;1.02708;0.0334995;-0.618768;-0.0676974;3.7
0.611754;-0.464472;-0.433829;-0.826766;-0.876104;1.02583;0.0416924;-0.623942;-0.0761469;3.705
0.611754;-0.464472;-0.433829;-0.826766;-0.876104;1.02583;0.0416924;-0.623942;-0.0761469;3.71
0.611754;-0.464472;-0.433829;-0.826766;-0.876104;1.02583;0.0416924;-0.623942;-0.0761469;3.715
0.611754;-0.464472;-0.433829;-0.826766;-0.876104;1.02583;0.0416924;-0.623942;-0.0761469;3.72
0.674494;-0.411723;-0.572648;-0.825724;-0.886662;1.02444;0.0563835;-0.631648;-0.0849186;3.725
0.674494;-0.411723;-0.572648;-0.825724;-0.886662;1.02444;0.0563835;-0.631648;-0.0849186;3.73
0.674494;-0.411723;-0.572648;-0.825724;-0.886662;1.02444;0.0563835;-0.631648;-0.0849186;3.735
0.994731;-0.72289;-0.503005;-0.824455;-0.897454;1.02297;0.070542;-0.643817;-0.0923742;3.74
0.994731;-0.72289;-0.503005;-0.824455;-0.897454;1.02297;0.070542;-0.643817;-0.0923742;3.745
0.994731;-0.72289;-0.503005;-0.824455;-0.897454;1.02297;0.070542;-0.643817;-0.0923742;3.75
0.96338;-1.0416;-0.202823;-0.822911;-0.908511;1.02137;0.0812038;-0.661329;-0.0976717;3.755
0.96338;-1.0416;-0.202823;-0.822911;-0.908511;1.02137;0.0812038;-0.661329;-0.0976717;3.76
0.96338;-1.0416;-0.202823;-0.822911;-0.908511;1.02137;0.0812038;-0.661329;-0.0976717;3.765
0.96338;-1.0416;-0.202823;-0.822911;-0.908511;1.02137;0.0812038;-0.661329;-0.0976717;3.77
0.561501;-1.054;-0.113363;-0.821139;-0.919806;1.01966;0.0893859;-0.68384;-0.100173;3.775
0.561501;-1.054;-0.113363;-0.821139;-0.919806;1.01966;0.0893859;-0.68384;-0.100173;3.78
0.561501;-1.054;-0.113363;-0.821139;-0.919806;1.01966;0.0893859;-0.68384;-0.100173;3.785
0.310468;-1.14253;-0.032937;-0.819216;-0.931402;1.01794;0.102689;-0.702501;-0.100272;3.79
0.310468;-1.14253;-0.032937;-0.819216;-0.931402;1.01794;0.102689;-0.702501;-0.100272;3.795
0.310468;-1.14253;-0.032937;-0.819216;-0.931402;1.01794;0.102689;-0.702501;-0.100272;3.8
0.404127;-1.05626;-0.111922;-0.817214;-0.943333;1.0161;0.119129;-0.713537;-0.100041;3.805
0.404127;-1.05626;-0.111922;-0.817214;-0.943333;1.0161;0.119129;-0.713537;-0.100041;3.81
0.404127;-1.05626;-0.111922;-0.817214;-0.943333;1.0161;0.119129;-0.713537;-0.100041;3.815
0.404127;-1.05626;-0.111922;-0.817214;-0.943333;1.0161;0.119129;-0.713537;-0.100041;3.82
0.768827;-0.797152;0.108781;-0.815054;-0.955562;1.01426;0.133491;-0.72583;-0.0952324;3.825
0.768827;-0.797152;0.108781;-0.815054;-0.955562;1.01426;0.133491;-0.72583;-0.0952324;3.83
0.768827;-0.797152;0.108781;-0.815054;-0.955562;1.01426;0.133491;-0.72583;-0.0952324;3.835
0.768827;-0.797152;0.108781;-0.815054;-0.955562;1.01426;0.133491;-0.72583;-0.0952324;3.84
1.5269;-0.450628;1.20041;-0.81259;-0.968053;1.0128;0.143848;-0.748216;-0.0776065;3.845
1.5269;-0.450628;1.20041;-0.81259;-0.968053;1.0128;0.143848;-0.748216;-0.0776065;3.85
0.900837;-1.01302;2.08411;-0.809665;-0.980804;1.01177;0.157317;-0.787175;-0.0391001;3.855
0.900837;-1.01302;2.08411;-0.809665;-0.980804;1.01177;0.157317;-0.787175;-0.0391001;3.86
0.900837;-1.01302;2.08411;-0.809665;-0.980804;1.01177;0.157317;-0.787175;-0.0391001;3.865
0.900837;-1.01302;2.08411;-0.809665;-0.980804;1.01177;0.157317;-0.787175;-0.0391001;3.87
0.365643;-2.05518;1.45149;-0.806446;-0.99382;1.01111;0.190712;-0.830181;0.0098728;3.875
0.365643;-2.05518;1.45149;-0.806446;-0.99382;1.01111;0.190712;-0.830181;0.0098728;3.88
0.365643;-2.05518;1.45149;-0.806446;-0.99382;1.01111;0.190712;-0.830181;0.0098728;3.885
0.365643;-2.05518;1.45149;-0.806446;-0.99382;1.01111;0.190712;-0.830181;0.0098728;3.89
0.881105;-2.725;3.77461;-0.803278;-1.00707;1.01099;0.161083;-0.844009;0.0485072;3.895
0.881105;-2.725;3.77461;-0.803278;-1.00707;1.01099;0.161083;-0.844009;0.0485072;3.9
-0.201366;0.994491;1.66852;-0.800302;-1.02062;1.01163;0.14994;-0.855072;0.0737603;3.905
-0.201366;0.994491;1.66852;-0.800302;-1.02062;1.01163;0.14994;-0.855072;0.0737603;3.91
-0.201366;0.994491;1.66852;-0.800302;-1.02062;1.01163;0.14994;-0.855072;0.0737603;3.915
-0.201366;0.994491;1.66852;-0.800302;-1.02062;1.01163;0.14994;-0.855072;0.0737603;3.92
-0.830476;0.881216;0.00548619;-0.797369;-1.03441;1.01282;0.162792;-0.841695;0.0833484;3.925
-0.830476;0.881216;0.00548619;-0.797369;-1.03441;1.01282;0.162792;-0.841695;0.0833484;3.93
-0.830476;0.881216;0.00548619;-0.797369;-1.03441;1.01282;0.162792;-0.841695;0.0833484;3.935
-0.144524;-0.488936;0.831074;-0.794384;-1.04823;1.01412;0.141499;-0.821641;0.086532;3.94
-0.144524;-0.488936;0.831074;-0.794384;-1.04823;1.01412;0.141499;-0.821641;0.086532;3.945
-0.144524;-0.488936;0.831074;-0.794384;-1.04823;1.01412;0.141499;-0.821641;0.086532;3.95
-0.0704275;-1.7855;0.489414;-0.791266;-1.06208;1.01547;0.137596;-0.816274;0.0844776;3.955
-0.0704275;-1.7855;0.489414;-0.791266;-1.06208;1.01547;0.137596;-0.816274;0.0844776;3.96
-0.0704275;-1.7855;0.489414;-0.791266;-1.06208;1.01547;0.137596;-0.816274;0.0844776;3.965
-0.0704275;-1.7855;0.489414;-0.791266;-1.06208;1.01547;0.137596;-0.816274;0.0844776;3.97
0.21612;-0.601131;-0.351145;-0.788107;-1.07597;1.01697;0.149671;-0.827014;0.0817968;3.975
0.21612;-0.601131;-0.351145;-0.788107;-1.07597;1.01697;0.149671;-0.827014;0.0817968;3.98
0.21612;-0.601131;-0.351145;-0.788107;-1.07597;1.01697;0.149671;-0.827014;0.0817968;3.985
0.21612;-0.601131;-0.351145;-0.788107;-1.07597;1.01697;0.149671;-0.827014;0.0817968;3.99
0.189667;1.01924;-0.654449;-0.785068;-1.08971;1.01839;0.163599;-0.84322;0.0796657;3.995
0.189667;1.01924;-0.654449;-0.785068;-1.08971;1.01839;0.163599;-0.84322;0.0796657;4
-0.0223186;0.766423;-0.518324;-0.782226;-1.10326;1.01967;0.163254;-0.842565;0.0707952;4.005
-0.0223186;0.766423;-0.518324;-0.782226;-1.10326;1.01967;0.163254;-0.842565;0.0707952;4.01
-0.0223186;0.766423;-0.518324;-0.782226;-1.10326;1.01967;0.163254;-0.842565;0.0707952;4.015
-0.0223186;0.766423;-0.518324;-0.782226;-1.10326;1.01967;0.163254;-0.842565;0.0707952;4.02
-0.0777448;0.576483;-0.602133;-0.77949;-1.11668;1.02088;0.144589;-0.82975;0.0599111;4.025
-0.0777448;0.576483;-0.602133;-0.77949;-1.11668;1.02088;0.144589;-0.82975;0.0599111;4.03
-0.0777448;0.576483;-0.602133;-0.77949;-1.11668;1.02088;0.144589;-0.82975;0.0599111;4.035
-0.0777448;0.576483;-0.602133;-0.77949;-1.11668;1.02088;0.144589;-0.82975;0.0599111;4.04
-0.0726363;0.831114;-0.523791;-0.776759;-1.12985;1.02203;0.11721;-0.811847;0.05409;4.045
-0.0726363;0.831114;-0.523791;-0.776759;-1.12985;1.02203;0.11721;-0.811847;0.05409;4.05
-0.0726363;0.831114;-0.523791;-0.776759;-1.12985;1.02203;0.11721;-0.811847;0.05409;4.055
-0.290194;0.937082;-0.325154;-0.773939;-1.14276;1.02303;0.0992329;-0.794116;0.0528101;4.06
-0.290194;0.937082;-0.325154;-0.773939;-1.14276;1.02303;0.0992329;-0.794116;0.0528101;4.065
-0.290194;0.937082;-0.325154;-0.773939;-1.14276;1.02303;0.0992329;-0.794116;0.0528101;4.07
-0.334188;0.910514;-0.0427516;-0.771119;-1.15542;1.02395;0.0870934;-0.779621;0.0519246;4.075
-0.334188;0.910514;-0.0427516;-0.771119;-1.15542;1.02395;0.0870934;-0.779621;0.0519246;4.08
-0.334188;0.910514;-0.0427516;-0.771119;-1.15542;1.02395;0.0870934;-0.779621;0.0519246;4.085
-0.465675;0.816546;0.329624;-0.768487;-1.16778;1.02496;0.0812515;-0.763387;0.0519167;4.09
-0.465675;0.816546;0.329624;-0.768487;-1.16778;1.02496;0.0812515;-0.763387;0.0519167;4.095
-0.465675;0.816546;0.329624;-0.768487;-1.16778;1.02496;0.0812515;-0.763387;0.0519167;4.1
-0.544821;1.07141;0.384299;-0.766159;-1.17981;1.02617;0.0746437;-0.740364;0.0608372;4.105
-0.544821;1.07141;0.384299;-0.766159;-1.17981;1.02617;0.0746437;-0.740364;0.0608372;4.11
-0.544821;1.07141;0.384299;-0.766159;-1.17981;1.02617;0.0746437;-0.740364;0.0608372;4.115
-0.544821;1.07141;0.384299;-0.766159;-1.17981;1.02617;0.0746437;-0.740364;0.0608372;4.12
-0.508843;1.13785;0.556601;-0.764033;-1.19154;1.02746;0.0745732;-0.713704;0.0707366;4.125
-0.508843;1.13785;0.556601;-0.764033;-1.19154;1.02746;0.0745732;-0.713704;0.0707366;4.13
-0.508843;1.13785;0.556601;-0.764033;-1.19154;1.02746;0.0745732;-0.713704;0.0707366;4.135
-0.284701;1.28932;0.400497;-0.761974;-1.20305;1.0287;0.0773843;-0.689008;0.0764594;4.14
-0.284701;1.28932;0.400497;-0.761974;-1.20305;1.0287;0.0773843;-0.689008;0.0764594;4.145
-0.284701;1.28932;0.400497;-0.761974;-1.20305;1.0287;0.0773843;-0.689008;0.0764594;4.15
-0.223271;0.86663;0.0103953;-0.759968;-1.21432;1.02987;0.078766;-0.667062;0.0742636;4.155
-0.223271;0.86663;0.0103953;-0.759968;-1.21432;1.02987;0.078766;-0.667062;0.0742636;4.16
-0.223271;0.86663;0.0103953;-0.759968;-1.21432;1.02987;0.078766;-0.667062;0.0742636;4.165
-0.223271;0.86663;0.0103953;-0.759968;-1.21432;1.02987;0.078766;-0.667062;0.0742636;4.17
-0.0411095;0.872679;-0.3736;-0.758029;-1.22537;1.031;0.0830506;-0.65285;0.0668219;4.175
-0.0411095;0.872679;-0.3736;-0.758029;-1.22537;1.031;0.0830506;-0.65285;0.0668219;4.18
-0.0411095;0.872679;-0.3736;-0.758029;-1.22537;1.031;0.0830506;-0.65285;0.0668219;4.185
-0.0411095;0.872679;-0.3736;-0.758029;-1.22537;1.031;0.0830506;-0.65285;0.0668219;4.19
-0.127876;0.665933;-0.514013;-0.756057;-1.23625;1.03199;0.0890998;-0.641719;0.0587501;4.195
-0.127876;0.665933;-0.514013;-0.756057;-1.23625;1.03199;0.0890998;-0.641719;0.0587501;4.2
-0.127876;0.665933;-0.514013;-0.756057;-1.23625;1.03199;0.0890998;-0.641719;0.0587501;4.205
-0.252681;0.638185;-0.409626;-0.753983;-1.24697;1.03284;0.0921045;-0.633067;0.0516773;4.21
-0.252681;0.638185;-0.409626;-0.753983;-1.24697;1.03284;0.0921045;-0.633067;0.0516773;4.215
-0.252681;0.638185;-0.409626;-0.753983;-1.24697;1.03284;0.0921045;-0.633067;0.0516773;4.22
-0.275548;0.458111;-0.496858;-0.751872;-1.25752;1.03356;0.089981;-0.625111;0.0438365;4.225
-0.275548;0.458111;-0.496858;-0.751872;-1.25752;1.03356;0.089981;-0.625111;0.0438365;4.23
-0.275548;0.458111;-0.496858;-0.751872;-1.25752;1.03356;0.089981;-0.625111;0.0438365;4.235
-0.25208;0.268906;-0.62236;-0.749807;-1.26796;1.03413;0.0870728;-0.616888;0.0348448;4.24
-0.25208;0.268906;-0.62236;-0.749807;-1.26796;1.03413;0.0870728;-0.616888;0.0348448;4.245
-0.25208;0.268906;-0.62236;-0.749807;-1.26796;1.03413;0.0870728;-0.616888;0.0348448;4.25
-0.314804;1.16266;-1.95655;-0.747812;-1.27828;1.03452;0.0906006;-0.622395;0.024597;4.255
-0.314804;1.16266;-1.95655;-0.747812;-1.27828;1.03452;0.0906006;-0.622395;0.024597;4.26
-0.314804;1.16266;-1.95655;-0.747812;-1.27828;1.03452;0.0906006;-0.622395;0.024597;4.265
-0.314804;1.16266;-1.95655;-0.747812;-1.27828;1.03452;0.0906006;-0.622395;0.024597;4.27
-0.187335;0.487731;-1.89208;-0.745847;-1.28849;1.03475;0.0914786;-0.613516;0.0120873;4.275
-0.187335;0.487731;-1.89208;-0.745847;-1.28849;1.03475;0.0914786;-0.613516;0.0120873;4.28
-0.187335;0.487731;-1.89208;-0.745847;-1.28849;1.03475;0.0914786;-0.613516;0.0120873;4.285
-0.187335;0.487731;-1.89208;-0.745847;-1.28849;1.03475;0.0914786;-0.613516;0.0120873;4.29
-0.056153;-0.0828864;-0.485982;-0.743907;-1.29862;1.03488;0.0897547;-0.595918;0.00157105;4.295
-0.056153;-0.0828864;-0.485982;-0.743907;-1.29862;1.03488;0.0897547;-0.595918;0.00157105;4.3
-0.00416407;0.310763;-0.399657;-0.741986;-1.30866;1.0349;0.0935594;-0.589899;-0.0056344;4.305
-0.00416407;0.310763;-0.399657;-0.741986;-1.30866;1.0349;0.0935594;-0.589899;-0.0056344;4.31
-0.00416407;0.310763;-0.399657;-0.741986;-1.30866;1.0349;0.0935594;-0.589899;-0.0056344;4.315
-0.00416407;0.310763;-0.399657;-0.741986;-1.30866;1.0349;0.0935594;-0.589899;-0.0056344;4.32
-0.0899477;0.22847;-0.320613;-0.740094;-1.31862;1.03481;0.0996663;-0.585595;-0.0116235;4.325
-0.0899477;0.22847;-0.320613;-0.740094;-1.31862;1.03481;0.0996663;-0.585595;-0.0116235;4.33
-0.0899477;0.22847;-0.320613;-0.740094;-1.31862;1.03481;0.0996663;-0.585595;-0.0116235;4.335
-0.0899477;0.22847;-0.320613;-0.740094;-1.31862;1.03481;0.0996663;-0.585595;-0.0116235;4.34
-0.0339801;0.157267;-0.387801;-0.738258;-1.32856;1.03464;0.103776;-0.583171;-0.0172175;4.345
-0.0339801;0.157267;-0.387801;-0.738258;-1.32856;1.03464;0.103776;-0.583171;-0.0172175;4.35
-0.0339801;0.157267;-0.387801;-0.738258;-1.32856;1.03464;0.103776;-0.583171;-0.0172175;4.355
-0.0783571;0.140915;-0.294335;-0.736497;-1.33849;1.03439;0.102214;-0.581384;-0.021442;4.36
-0.0783571;0.140915;-0.294335;-0.736497;-1.33849;1.03439;0.102214;-0.581384;-0.021442;4.365
-0.0783571;0.140915;-0.294335;-0.736497;-1.33849;1.03439;0.102214;-0.581384;-0.021442;4.37
-0.274494;0.0825475;-0.289006;-0.734801;-1.3484;1.03406;0.101331;-0.581931;-0.0252146;4.375
-0.274494;0.0825475;-0.289006;-0.734801;-1.3484;1.03406;0.101331;-0.581931;-0.0252146;4.38
-0.274494;0.0825475;-0.289006;-0.734801;-1.3484;1.03406;0.101331;-0.581931;-0.0252146;4.385
-0.155532;-0.0598315;-0.172071;-0.733161;-1.3583;1.03366;0.100994;-0.581624;-0.0291688;4.39
-0.155532;-0.0598315;-0.172071;-0.733161;-1.3583;1.03366;0.100994;-0.581624;-0.0291688;4.395
-0.155532;-0.0598315;-0.172071;-0.733161;-1.3583;1.03366;0.100994;-0.581624;-0.0291688;4.4
0.0108172;-0.0565411;-0.241709;-0.731578;-1.36819;1.03319;0.0997268;-0.583273;-0.0327831;4.405
0.0108172;-0.0565411;-0.241709;-0.731578;-1.36819;1.03319;0.0997268;-0.583273;-0.0327831;4.41
0.0108172;-0.0565411;-0.241709;-0.731578;-1.36819;1.03319;0.0997268;-0.583273;-0.0327831;4.415
0.0108172;-0.0565411;-0.241709;-0.731578;-1.36819;1.03319;0.0997268;-0.583273;-0.0327831;4.42
-0.0401893;0.0358961;-0.336825;-0.730054;-1.37807;1.03264;0.101638;-0.585724;-0.0361333;4.425
-0.0401893;0.0358961;-0.336825;-0.730054;-1.37807;1.03264;0.101638;-0.585724;-0.0361333;4.43
-0.0401893;0.0358961;-0.336825;-0.730054;-1.37807;1.03264;0.101638;-0.585724;-0.0361333;4.435
-0.0401893;0.0358961;-0.336825;-0.730054;-1.37807;1.03264;0.101638;-0.585724;-0.0361333;4.44
-0.0649575;-0.104947;-0.180903;-0.728573;-1.38797;1.03204;0.100128;-0.587037;-0.0402262;4.445
-0.0649575;-0.104947;-0.180903;-0.728573;-1.38797;1.03204;0.100128;-0.587037;-0.0402262;4.45
-0.177287;-0.098974;-0.291034;-0.727123;-1.39786;1.03136;0.098502;-0.589471;-0.044969;4.455
-0.177287;-0.098974;-0.291034;-0.727123;-1.39786;1.03136;0.098502;-0.589471;-0.044969;4.46
-0.177287;-0.098974;-0.291034;-0.727123;-1.39786;1.03136;0.098502;-0.589471;-0.044969;4.465
-0.177287;-0.098974;-0.291034;-0.727123;-1.39786;1.03136;0.098502;-0.589471;-0.044969;4.47
-0.188154;-0.0690493;-0.305373;-0.725716;-1.40776;1.03063;0.0937715;-0.592719;-0.0496324;4.475
-0.188154;-0.0690493;-0.305373;-0.725716;-1.40776;1.03063;0.0937715;-0.592719;-0.0496324;4.48
-0.188154;-0.0690493;-0.305373;-0.725716;-1.40776;1.03063;0.0937715;-0.592719;-0.0496324;4.485
-0.203994;-0.321255;-0.264743;-0.724364;-1.41776;1.02983;0.0901151;-0.597552;-0.053592;4.49
-0.203994;-0.321255;-0.264743;-0.724364;-1.41776;1.02983;0.0901151;-0.597552;-0.053592;4.495
-0.203994;-0.321255;-0.264743;-0.724364;-1.41776;1.02983;0.0901151;-0.597552;-0.053592;4.5
-0.248964;-0.521061;-0.178784;-0.723072;-1.42785;1.02898;0.0866448;-0.603605;-0.0570558;4.505
-0.248964;-0.521061;-0.178784;-0.723072;-1.42785;1.02898;0.0866448;-0.603605;-0.0570558;4.51
-0.248964;-0.521061;-0.178784;-0.723072;-1.42785;1.02898;0.0866448;-0.603605;-0.0570558;4.515
-0.248964;-0.521061;-0.178784;-0.723072;-1.42785;1.02898;0.0866448;-0.603605;-0.0570558;4.52
-0.038731;-0.509793;-0.275179;-0.721838;-1.43803;1.02806;0.0795463;-0.611357;-0.0599748;4.525
-0.038731;-0.509793;-0.275179;-0.721838;-1.43803;1.02806;0.0795463;-0.611357;-0.0599748;4.53
-0.038731;-0.509793;-0.275179;-0.721838;-1.43803;1.02806;0.0795463;-0.611357;-0.0599748;4.535
-0.412885;-0.505141;-0.189902;-0.720664;-1.44842;1.02708;0.0779024;-0.622998;-0.0628748;4.54
-0.412885;-0.505141;-0.189902;-0.720664;-1.44842;1.02708;0.0779024;-0.622998;-0.0628748;4.545
-0.412885;-0.505141;-0.189902;-0.720664;-1.44842;1.02708;0.0779024;-0.622998;-0.0628748;4.55
-0.235665;-0.806956;-0.321343;-0.719576;-1.45905;1.02606;0.0695663;-0.641375;-0.0646021;4.555
-0.235665;-0.806956;-0.321343;-0.719576;-1.45905;1.02606;0.0695663;-0.641375;-0.0646021;4.56
-0.235665;-0.806956;-0.321343;-0.719576;-1.45905;1.02606;0.0695663;-0.641375;-0.0646021;4.565
-0.235665;-0.806956;-0.321343;-0.719576;-1.45905;1.02606;0.0695663;-0.641375;-0.0646021;4.57
-0.195133;-0.908329;-0.148661;-0.71855;-1.46988;1.02497;0.0677742;-0.657913;-0.0676165;4.575
-0.195133;-0.908329;-0.148661;-0.71855;-1.46988;1.02497;0.0677742;-0.657913;-0.0676165;4.58
-0.195133;-0.908329;-0.148661;-0.71855;-1.46988;1.02497;0.0677742;-0.657913;-0.0676165;4.585
-0.195133;-0.908329;-0.148661;-0.71855;-1.46988;1.02497;0.0677742;-0.657913;-0.0676165;4.59
0.0809558;-0.896377;-0.0862139;-0.717514;-1.48094;1.02376;0.0694777;-0.67079;-0.0731722;4.595
0.0809558;-0.896377;-0.0862139;-0.717514;-1.48094;1.02376;0.0694777;-0.67079;-0.0731722;4.6
0.315606;-0.689578;-0.359169;-0.716395;-1.4922;1.02234;0.0701011;-0.684403;-0.0825407;4.605
0.315606;-0.689578;-0.359169;-0.716395;-1.4922;1.02234;0.0701011;-0.684403;-0.0825407;4.61
0.315606;-0.689578;-0.359169;-0.716395;-1.4922;1.02234;0.0701011;-0.684403;-0.0825407;4.615
0.315606;-0.689578;-0.359169;-0.716395;-1.4922;1.02234;0.0701011;-0.684403;-0.0825407;4.62
0.076089;-0.480765;-0.57113;-0.715273;-1.50369;1.02079;0.0698209;-0.699265;-0.092372;4.625
0.076089;-0.480765;-0.57113;-0.715273;-1.50369;1.02079;0.0698209;-0.699265;-0.092372;4.63
0.076089;-0.480765;-0.57113;-0.715273;-1.50369;1.02079;0.0698209;-0.699265;-0.092372;4.635
-0.392363;-0.749806;-0.503893;-0.7143;-1.51546;1.01932;0.0731449;-0.712178;-0.0940473;4.64
-0.392363;-0.749806;-0.503893;-0.7143;-1.51546;1.01932;0.0731449;-0.712178;-0.0940473;4.645
-0.392363;-0.749806;-0.503893;-0.7143;-1.51546;1.01932;0.0731449;-0.712178;-0.0940473;4.65
-1.03172;-1.09078;0.371779;-0.713565;-1.52753;1.01785;0.0672853;-0.727745;-0.0857892;4.655
-1.03172;-1.09078;0.371779;-0.713565;-1.52753;1.01785;0.0672853;-0.727745;-0.0857892;4.66
-1.03172;-1.09078;0.371779;-0.713565;-1.52753;1.01785;0.0672853;-0.727745;-0.0857892;4.665
-1.03172;-1.09078;0.371779;-0.713565;-1.52753;1.01785;0.0672853;-0.727745;-0.0857892;4.67
-0.651569;-1.32137;1.39395;-0.712985;-1.53988;1.01645;0.059629;-0.748153;-0.068388;4.675
-0.651569;-1.32137;1.39395;-0.712985;-1.53988;1.01645;0.059629;-0.748153;-0.068388;4.68
-0.651569;-1.32137;1.39395;-0.712985;-1.53988;1.01645;0.059629;-0.748153;-0.068388;4.685
-0.0208981;-1.47124;1.18405;-0.712449;-1.55255;1.01545;0.0450287;-0.773947;-0.0410487;4.69
-0.0208981;-1.47124;1.18405;-0.712449;-1.55255;1.01545;0.0450287;-0.773947;-0.0410487;4.695
-0.0208981;-1.47124;1.18405;-0.712449;-1.55255;1.01545;0.0450287;-0.773947;-0.0410487;4.7
-0.160461;-1.29121;2.16297;-0.712008;-1.56563;1.01501;0.0617493;-0.789008;-0.00269666;4.705
-0.160461;-1.29121;2.16297;-0.712008;-1.56563;1.01501;0.0617493;-0.789008;-0.00269666;4.71
-0.160461;-1.29121;2.16297;-0.712008;-1.56563;1.01501;0.0617493;-0.789008;-0.00269666;4.715
-0.160461;-1.29121;2.16297;-0.712008;-1.56563;1.01501;0.0617493;-0.789008;-0.00269666;4.72
0.812019;-1.15046;2.96297;-0.711607;-1.57903;1.01497;0.0866842;-0.788467;0.0397195;4.725
0.812019;-1.15046;2.96297;-0.711607;-1.57903;1.01497;0.0866842;-0.788467;0.0397195;4.73
0.812019;-1.15046;2.96297;-0.711607;-1.57903;1.01497;0.0866842;-0.788467;0.0397195;4.735
0.812019;-1.15046;2.96297;-0.711607;-1.57903;1.01497;0.0866842;-0.788467;0.0397195;4.74
1.36858;0.383631;1.57788;-0.710975;-1.59252;1.0153;0.0839878;-0.803567;0.0712796;4.745
1.36858;0.383631;1.57788;-0.710975;-1.59252;1.0153;0.0839878;-0.803567;0.0712796;4.75
1.21537;0.602815;0.571052;-0.709922;-1.60611;1.01608;0.071314;-0.811638;0.0775032;4.755
1.21537;0.602815;0.571052;-0.709922;-1.60611;1.01608;0.071314;-0.811638;0.0775032;4.76
1.21537;0.602815;0.571052;-0.709922;-1.60611;1.01608;0.071314;-0.811638;0.0775032;4.765
1.21537;0.602815;0.571052;-0.709922;-1.60611;1.01608;0.071314;-0.811638;0.0775032;4.77
-1.71665;0.459967;-0.466534;-0.708634;-1.61978;1.01723;0.0844093;-0.813117;0.0708144;4.775
-1.71665;0.459967;-0.466534;-0.708634;-1.61978;1.01723;0.0844093;-0.813117;0.0708144;4.78
-1.71665;0.459967;-0.466534;-0.708634;-1.61978;1.01723;0.0844093;-0.813117;0.0708144;4.785
-1.71665;0.459967;-0.466534;-0.708634;-1.61978;1.01723;0.0844093;-0.813117;0.0708144;4.79
0.770906;-0.670715;-0.166405;-0.707395;-1.63325;1.01838;0.0781338;-0.810792;0.0601774;4.795
0.770906;-0.670715;-0.166405;-0.707395;-1.63325;1.01838;0.0781338;-0.810792;0.0601774;4.8
0.770906;-0.670715;-0.166405;-0.707395;-1.63325;1.01838;0.0781338;-0.810792;0.0601774;4.805
1.24858;-0.268147;-0.098832;-0.706331;-1.64642;1.01941;0.083826;-0.801229;0.0528405;4.81
1.24858;-0.268147;-0.098832;-0.706331;-1.64642;1.01941;0.083826;-0.801229;0.0528405;4.815
1.24858;-0.268147;-0.098832;-0.706331;-1.64642;1.01941;0.083826;-0.801229;0.0528405;4.82
-0.100874;0.746264;-0.313158;-0.705297;-1.65938;1.02045;0.0884067;-0.794458;0.0473803;4.825
-0.100874;0.746264;-0.313158;-0.705297;-1.65938;1.02045;0.0884067;-0.794458;0.0473803;4.83
-0.100874;0.746264;-0.313158;-0.705297;-1.65938;1.02045;0.0884067;-0.794458;0.0473803;4.835
-0.178568;1.01681;-0.16153;-0.704175;-1.67212;1.02148;0.0858944;-0.784168;0.044168;4.84
-0.178568;1.01681;-0.16153;-0.704175;-1.67212;1.02148;0.0858944;-0.784168;0.044168;4.845
-0.178568;1.01681;-0.16153;-0.704175;-1.67212;1.02148;0.0858944;-0.784168;0.044168;4.85
0.144683;0.575625;-0.425637;-0.702944;-1.68467;1.02249;0.0965203;-0.768908;0.0448679;4.855
0.144683;0.575625;-0.425637;-0.702944;-1.68467;1.02249;0.0965203;-0.768908;0.0448679;4.86
0.144683;0.575625;-0.425637;-0.702944;-1.68467;1.02249;0.0965203;-0.768908;0.0448679;4.865
0.144683;0.575625;-0.425637;-0.702944;-1.68467;1.02249;0.0965203;-0.768908;0.0448679;4.87
0.230175;0.782783;-0.395945;-0.70164;-1.697;1.02349;0.112542;-0.741734;0.0474203;4.875
0.230175;0.782783;-0.395945;-0.70164;-1.697;1.02349;0.112542;-0.741734;0.0474203;4.88
0.230175;0.782783;-0.395945;-0.70164;-1.697;1.02349;0.112542;-0.741734;0.0474203;4.885
0.371757;1.0681;0.0278097;-0.70024;-1.70896;1.02449;0.12554;-0.710437;0.0493226;4.89
0.371757;1.0681;0.0278097;-0.70024;-1.70896;1.02449;0.12554;-0.710437;0.0493226;4.895
0.371757;1.0681;0.0278097;-0.70024;-1.70896;1.02449;0.12554;-0.710437;0.0493226;4.9
0.740864;1.26382;0.114174;-0.698771;-1.72049;1.0255;0.135255;-0.687498;0.0518554;4.905
0.740864;1.26382;0.114174;-0.698771;-1.72049;1.0255;0.135255;-0.687498;0.0518554;4.91
0.740864;1.26382;0.114174;-0.698771;-1.72049;1.0255;0.135255;-0.687498;0.0518554;4.915
0.740864;1.26382;0.114174;-0.698771;-1.72049;1.0255;0.135255;-0.687498;0.0518554;4.92
0.660658;1.19668;0.221141;-0.6972;-1.73164;1.0265;0.142517;-0.666334;0.0548428;4.925
0.660658;1.19668;0.221141;-0.6972;-1.73164;1.0265;0.142517;-0.666334;0.0548428;4.93
0.660658;1.19668;0.221141;-0.6972;-1.73164;1.0265;0.142517;-0.666334;0.0548428;4.935
0.660658;1.19668;0.221141;-0.6972;-1.73164;1.0265;0.142517;-0.666334;0.0548428;4.94
0.516544;1.20758;0.347515;-0.695404;-1.74242;1.02749;0.148156;-0.646329;0.0589213;4.945
0.516544;1.20758;0.347515;-0.695404;-1.74242;1.02749;0.148156;-0.646329;0.0589213;4.95
0.314581;1.63874;0.250068;-0.693299;-1.7528;1.02845;0.151455;-0.62454;0.0665059;4.955
0.314581;1.63874;0.250068;-0.693299;-1.7528;1.02845;0.151455;-0.62454;0.0665059;4.96
0.314581;1.63874;0.250068;-0.693299;-1.7528;1.02845;0.151455;-0.62454;0.0665059;4.965
0.314581;1.63874;0.250068;-0.693299;-1.7528;1.02845;0.151455;-0.62454;0.0665059;4.97
0.244836;1.26558;0.404774;-0.690966;-1.76281;1.02939;0.148533;-0.598566;0.0730023;4.975
0.244836;1.26558;0.404774;-0.690966;-1.76281;1.02939;0.148533;-0.598566;0.0730023;4.98
0.244836;1.26558;0.404774;-0.690966;-1.76281;1.02939;0.148533;-0.598566;0.0730023;4.985
0.225215;1.19198;0.174559;-0.688542;-1.77256;1.03028;0.148824;-0.574044;0.0747768;4.99
0.225215;1.19198;0.174559;-0.688542;-1.77256;1.03028;0.148824;-0.574044;0.0747768;4.995
0.225215;1.19198;0.174559;-0.688542;-1.77256;1.03028;0.148824;-0.574044;0.0747768;5
0.181997;1.53644;-0.169728;-0.686051;-1.78208;1.03115;0.152233;-0.557803;0.0716414;5.005
0.181997;1.53644;-0.169728;-0.686051;-1.78208;1.03115;0.152233;-0.557803;0.0716414;5.01
0.181997;1.53644;-0.169728;-0.686051;-1.78208;1.03115;0.152233;-0.557803;0.0716414;5.015
0.181997;1.53644;-0.169728;-0.686051;-1.78208;1.03115;0.152233;-0.557803;0.0716414;5.02
0.223633;0.914079;-0.249561;-0.683473;-1.79134;1.03198;0.154657;-0.538176;0.0642837;5.025
0.223633;0.914079;-0.249561;-0.683473;-1.79134;1.03198;0.154657;-0.538176;0.0642837;5.03
0.223633;0.914079;-0.249561;-0.683473;-1.79134;1.03198;0.154657;-0.538176;0.0642837;5.035
0.223633;0.914079;-0.249561;-0.683473;-1.79134;1.03198;0.154657;-0.538176;0.0642837;5.04
-0.00655472;1.05085;-0.537276;-0.680884;-1.8004;1.03268;0.163963;-0.5213;0.0563019;5.045
-0.00655472;1.05085;-0.537276;-0.680884;-1.8004;1.03268;0.163963;-0.5213;0.0563019;5.05
0.205313;0.726652;-0.571921;-0.678336;-1.80928;1.03322;0.173948;-0.504545;0.0455619;5.055
0.205313;0.726652;-0.571921;-0.678336;-1.80928;1.03322;0.173948;-0.504545;0.0455619;5.06
0.205313;0.726652;-0.571921;-0.678336;-1.80928;1.03322;0.173948;-0.504545;0.0455619;5.065
0.205313;0.726652;-0.571921;-0.678336;-1.80928;1.03322;0.173948;-0.504545;0.0455619;5.07
0.400275;0.776165;-0.66347;-0.675781;-1.81796;1.03362;0.179532;-0.49543;0.0343497;5.075
0.400275;0.776165;-0.66347;-0.675781;-1.81796;1.03362;0.179532;-0.49543;0.0343497;5.08
0.400275;0.776165;-0.66347;-0.675781;-1.81796;1.03362;0.179532;-0.49543;0.0343497;5.085
0.400275;0.776165;-0.66347;-0.675781;-1.81796;1.03362;0.179532;-0.49543;0.0343497;5.09
0.330363;0.82687;-0.678302;-0.673131;-1.82645;1.03388;0.183947;-0.487777;0.0241143;5.095
0.330363;0.82687;-0.678302;-0.673131;-1.82645;1.03388;0.183947;-0.487777;0.0241143;5.1
0.459516;0.920242;-0.67153;-0.670374;-1.8347;1.03395;0.18613;-0.481307;0.0148901;5.105
0.459516;0.920242;-0.67153;-0.670374;-1.8347;1.03395;0.18613;-0.481307;0.0148901;5.11
0.459516;0.920242;-0.67153;-0.670374;-1.8347;1.03395;0.18613;-0.481307;0.0148901;5.115
0.459516;0.920242;-0.67153;-0.670374;-1.8347;1.03395;0.18613;-0.481307;0.0148901;5.12
0.317637;0.58081;-0.544821;-0.66752;-1.84276;1.03388;0.192051;-0.473531;0.0060875;5.125
0.317637;0.58081;-0.544821;-0.66752;-1.84276;1.03388;0.192051;-0.473531;0.0060875;5.13
0.317637;0.58081;-0.544821;-0.66752;-1.84276;1.03388;0.192051;-0.473531;0.0060875;5.135
0.312625;0.492703;-0.348379;-0.664515;-1.85067;1.03372;0.197571;-0.46434;-0.00169504;5.14
0.312625;0.492703;-0.348379;-0.664515;-1.85067;1.03372;0.197571;-0.46434;-0.00169504;5.145
0.312625;0.492703;-0.348379;-0.664515;-1.85067;1.03372;0.197571;-0.46434;-0.00169504;5.15
0.346982;0.612714;-0.341768;-0.661325;-1.85842;1.03347;0.198696;-0.457277;-0.0080595;5.155
0.346982;0.612714;-0.341768;-0.661325;-1.85842;1.03347;0.198696;-0.457277;-0.0080595;5.16
0.346982;0.612714;-0.341768;-0.661325;-1.85842;1.03347;0.198696;-0.457277;-0.0080595;5.165
0.346982;0.612714;-0.341768;-0.661325;-1.85842;1.03347;0.198696;-0.457277;-0.0080595;5.17
0.376414;0.565913;-0.347822;-0.657974;-1.86601;1.03313;0.200317;-0.448668;-0.0129805;5.175
0.376414;0.565913;-0.347822;-0.657974;-1.86601;1.03313;0.200317;-0.448668;-0.0129805;5.18
0.376414;0.565913;-0.347822;-0.657974;-1.86601;1.03313;0.200317;-0.448668;-0.0129805;5.185
0.259112;0.460679;-0.258496;-0.654499;-1.87352;1.03277;0.204668;-0.440939;-0.0174974;5.19
0.259112;0.460679;-0.258496;-0.654499;-1.87352;1.03277;0.204668;-0.440939;-0.0174974;5.195
0.259112;0.460679;-0.258496;-0.654499;-1.87352;1.03277;0.204668;-0.440939;-0.0174974;5.2
0.259112;0.460679;-0.258496;-0.654499;-1.87352;1.03277;0.204668;-0.440939;-0.0174974;5.205
0.296104;0.206217;-0.253775;-0.650915;-1.88097;1.03242;0.209529;-0.43706;-0.0223016;5.21
0.296104;0.206217;-0.253775;-0.650915;-1.88097;1.03242;0.209529;-0.43706;-0.0223016;5.215
0.296104;0.206217;-0.253775;-0.650915;-1.88097;1.03242;0.209529;-0.43706;-0.0223016;5.22
0.35471;0.171435;-0.293109;-0.647213;-1.88834;1.03203;0.214925;-0.436418;-0.0268162;5.225
0.35471;0.171435;-0.293109;-0.647213;-1.88834;1.03203;0.214925;-0.436418;-0.0268162;5.23
0.35471;0.171435;-0.293109;-0.647213;-1.88834;1.03203;0.214925;-0.436418;-0.0268162;5.235
0.35471;0.171435;-0.293109;-0.647213;-1.88834;1.03203;0.214925;-0.436418;-0.0268162;5.24
0.537724;0.229818;-0.347772;-0.643391;-1.89564;1.03152;0.22083;-0.437528;-0.0317011;5.245
0.537724;0.229818;-0.347772;-0.643391;-1.89564;1.03152;0.22083;-0.437528;-0.0317011;5.25
0.481048;0.165216;-0.41912;-0.639448;-1.90286;1.03082;0.230758;-0.433537;-0.0372878;5.255
0.481048;0.165216;-0.41912;-0.639448;-1.90286;1.03082;0.230758;-0.433537;-0.0372878;5.26
0.481048;0.165216;-0.41912;-0.639448;-1.90286;1.03082;0.230758;-0.433537;-0.0372878;5.265
0.481048;0.165216;-0.41912;-0.639448;-1.90286;1.03082;0.230758;-0.433537;-0.0372878;5.27
0.594287;0.221585;-0.389219;-0.635387;-1.91002;1.02998;0.23895;-0.429352;-0.0433104;5.275
0.594287;0.221585;-0.389219;-0.635387;-1.91002;1.02998;0.23895;-0.429352;-0.0433104;5.28
0.594287;0.221585;-0.389219;-0.635387;-1.91002;1.02998;0.23895;-0.429352;-0.0433104;5.285
0.498105;0.182308;-0.343885;-0.63121;-1.91713;1.0291;0.247543;-0.426203;-0.0493203;5.29
0.498105;0.182308;-0.343885;-0.63121;-1.91713;1.0291;0.247543;-0.426203;-0.0493203;5.295
0.498105;0.182308;-0.343885;-0.63121;-1.91713;1.0291;0.247543;-0.426203;-0.0493203;5.3
0.420985;0.201;-0.402259;-0.62695;-1.92418;1.02821;0.255555;-0.424374;-0.0554304;5.305
0.420985;0.201;-0.402259;-0.62695;-1.92418;1.02821;0.255555;-0.424374;-0.0554304;5.31
0.420985;0.201;-0.402259;-0.62695;-1.92418;1.02821;0.255555;-0.424374;-0.0554304;5.315
0.420985;0.201;-0.402259;-0.62695;-1.92418;1.02821;0.255555;-0.424374;-0.0554304;5.32
0.606863;0.0635273;-0.339662;-0.622579;-1.93118;1.02727;0.263877;-0.422742;-0.0616454;5.325
0.606863;0.0635273;-0.339662;-0.622579;-1.93118;1.02727;0.263877;-0.422742;-0.0616454;5.33
0.606863;0.0635273;-0.339662;-0.622579;-1.93118;1.02727;0.263877;-0.422742;-0.0616454;5.335
0.606863;0.0635273;-0.339662;-0.622579;-1.93118;1.02727;0.263877;-0.422742;-0.0616454;5.34
0.712957;0.0122548;-0.269718;-0.618001;-1.93821;1.02628;0.273182;-0.423074;-0.0667599;5.345
0.712957;0.0122548;-0.269718;-0.618001;-1.93821;1.02628;0.273182;-0.423074;-0.0667599;5.35
0.835103;-0.12933;-0.189552;-0.613208;-1.94528;1.02523;0.285593;-0.42602;-0.0698632;5.355
0.835103;-0.12933;-0.189552;-0.613208;-1.94528;1.02523;0.285593;-0.42602;-0.0698632;5.36
0.835103;-0.12933;-0.189552;-0.613208;-1.94528;1.02523;0.285593;-0.42602;-0.0698632;5.365
0.835103;-0.12933;-0.189552;-0.613208;-1.94528;1.02523;0.285593;-0.42602;-0.0698632;5.37
0.9076;-0.231898;-0.16307;-0.608203;-1.95237;1.02412;0.302404;-0.428102;-0.0724405;5.375
0.9076;-0.231898;-0.16307;-0.608203;-1.95237;1.02412;0.302404;-0.428102;-0.0724405;5.38
0.9076;-0.231898;-0.16307;-0.608203;-1.95237;1.02412;0.302404;-0.428102;-0.0724405;5.385
0.9076;-0.231898;-0.16307;-0.608203;-1.95237;1.02412;0.302404;-0.428102;-0.0724405;5.39
1.11651;-0.285375;-0.135737;-0.602903;-1.95954;1.02295;0.318099;-0.433175;-0.0748864;5.395
1.11651;-0.285375;-0.135737;-0.602903;-1.95954;1.02295;0.318099;-0.433175;-0.0748864;5.4
1.11021;-0.433188;0.0182874;-0.597274;-1.96681;1.02172;0.330593;-0.443198;-0.07806;5.405
1.11021;-0.433188;0.0182874;-0.597274;-1.96681;1.02172;0.330593;-0.443198;-0.07806;5.41
1.11021;-0.433188;0.0182874;-0.597274;-1.96681;1.02172;0.330593;-0.443198;-0.07806;5.415
1.11021;-0.433188;0.0182874;-0.597274;-1.96681;1.02172;0.330593;-0.443198;-0.07806;5.42
0.865633;-0.539675;-0.12359;-0.59135;-1.97416;1.02042;0.347327;-0.452376;-0.0805087;5.425
0.865633;-0.539675;-0.12359;-0.59135;-1.97416;1.02042;0.347327;-0.452376;-0.0805087;5.43
0.865633;-0.539675;-0.12359;-0.59135;-1.97416;1.02042;0.347327;-0.452376;-0.0805087;5.435
0.829968;-0.359026;-0.260492;-0.585149;-1.98157;1.01906;0.364048;-0.458336;-0.0818012;5.44
0.829968;-0.359026;-0.260492;-0.585149;-1.98157;1.01906;0.364048;-0.458336;-0.0818012;5.445
0.829968;-0.359026;-0.260492;-0.585149;-1.98157;1.01906;0.364048;-0.458336;-0.0818012;5.45
0.934317;0.0498827;-0.306889;-0.578686;-1.98906;1.01755;0.380866;-0.460481;-0.0827403;5.455
0.934317;0.0498827;-0.306889;-0.578686;-1.98906;1.01755;0.380866;-0.460481;-0.0827403;5.46
0.934317;0.0498827;-0.306889;-0.578686;-1.98906;1.01755;0.380866;-0.460481;-0.0827403;5.465
0.934317;0.0498827;-0.306889;-0.578686;-1.98906;1.01755;0.380866;-0.460481;-0.0827403;5.47
1.0773;-0.154621;-0.240181;-0.571943;-1.99662;1.01599;0.401272;-0.458036;-0.0828575;5.475
1.0773;-0.154621;-0.240181;-0.571943;-1.99662;1.01599;0.401272;-0.458036;-0.0828575;5.48
1.0773;-0.154621;-0.240181;-0.571943;-1.99662;1.01599;0.401272;-0.458036;-0.0828575;5.485
1.0773;-0.154621;-0.240181;-0.571943;-1.99662;1.01599;0.401272;-0.458036;-0.0828575;5.49
1.44605;0.0606383;0.774977;-0.564898;-2.00418;1.01463;0.416259;-0.462585;-0.0762497;5.495
1.44605;0.0606383;0.774977;-0.564898;-2.00418;1.01463;0.416259;-0.462585;-0.0762497;5.5
0.911078;0.121238;1.26034;-0.557529;-2.01172;1.01351;0.425398;-0.480529;-0.0590029;5.505
0.911078;0.121238;1.26034;-0.557529;-2.01172;1.01351;0.425398;-0.480529;-0.0590029;5.51
0.911078;0.121238;1.26034;-0.557529;-2.01172;1.01351;0.425398;-0.480529;-0.0590029;5.515
0.911078;0.121238;1.26034;-0.557529;-2.01172;1.01351;0.425398;-0.480529;-0.0590029;5.52
0.921864;-0.845909;0.840279;-0.549863;-2.01926;1.01259;0.449208;-0.488411;-0.0366429;5.525
0.921864;-0.845909;0.840279;-0.549863;-2.01926;1.01259;0.449208;-0.488411;-0.0366429;5.53
0.921864;-0.845909;0.840279;-0.549863;-2.01926;1.01259;0.449208;-0.488411;-0.0366429;5.535
0.921864;-0.845909;0.840279;-0.549863;-2.01926;1.01259;0.449208;-0.488411;-0.0366429;5.54
1.67798;-1.2366;1.55233;-0.54194;-2.0269;1.0121;0.453274;-0.499615;-0.0119914;5.545
1.67798;-1.2366;1.55233;-0.54194;-2.0269;1.0121;0.453274;-0.499615;-0.0119914;5.55
1.49295;-0.325721;2.27335;-0.533664;-2.03462;1.01209;0.432474;-0.514162;0.0138766;5.555
1.49295;-0.325721;2.27335;-0.533664;-2.03462;1.01209;0.432474;-0.514162;0.0138766;5.56
1.49295;-0.325721;2.27335;-0.533664;-2.03462;1.01209;0.432474;-0.514162;0.0138766;5.565
1.49295;-0.325721;2.27335;-0.533664;-2.03462;1.01209;0.432474;-0.514162;0.0138766;5.57
-0.428936;0.341718;1.15752;-0.525128;-2.04244;1.01251;0.448888;-0.512557;0.0422691;5.575
-0.428936;0.341718;1.15752;-0.525128;-2.04244;1.01251;0.448888;-0.512557;0.0422691;5.58
-0.428936;0.341718;1.15752;-0.525128;-2.04244;1.01251;0.448888;-0.512557;0.0422691;5.585
-0.389667;-0.408934;1.26749;-0.516656;-2.05043;1.01335;0.466688;-0.501885;0.0630477;5.59
-0.389667;-0.408934;1.26749;-0.516656;-2.05043;1.01335;0.466688;-0.501885;0.0630477;5.595
-0.389667;-0.408934;1.26749;-0.516656;-2.05043;1.01335;0.466688;-0.501885;0.0630477;5.6
0.146337;-0.147931;0.872136;-0.508427;-2.05866;1.01479;0.479883;-0.497475;0.0773183;5.605
0.146337;-0.147931;0.872136;-0.508427;-2.05866;1.01479;0.479883;-0.497475;0.0773183;5.61
0.146337;-0.147931;0.872136;-0.508427;-2.05866;1.01479;0.479883;-0.497475;0.0773183;5.615
0.146337;-0.147931;0.872136;-0.508427;-2.05866;1.01479;0.479883;-0.497475;0.0773183;5.62
0.432321;0.105787;0.428641;-0.500265;-2.06706;1.01666;0.482702;-0.500764;0.0874823;5.625
0.432321;0.105787;0.428641;-0.500265;-2.06706;1.01666;0.482702;-0.500764;0.0874823;5.63
0.432321;0.105787;0.428641;-0.500265;-2.06706;1.01666;0.482702;-0.500764;0.0874823;5.635
0.432321;0.105787;0.428641;-0.500265;-2.06706;1.01666;0.482702;-0.500764;0.0874823;5.64
0.423747;-0.221056;0.0170935;-0.491971;-2.07544;1.01844;0.485033;-0.504633;0.091232;5.645
0.423747;-0.221056;0.0170935;-0.491971;-2.07544;1.01844;0.485033;-0.504633;0.091232;5.65
0.168894;0.0401709;-0.357037;-0.483418;-2.08373;1.02002;0.494091;-0.515051;0.0890787;5.655
0.168894;0.0401709;-0.357037;-0.483418;-2.08373;1.02002;0.494091;-0.515051;0.0890787;5.66
0.168894;0.0401709;-0.357037;-0.483418;-2.08373;1.02002;0.494091;-0.515051;0.0890787;5.665
0.168894;0.0401709;-0.357037;-0.483418;-2.08373;1.02002;0.494091;-0.515051;0.0890787;5.67
0.121757;-0.856539;-0.577791;-0.474737;-2.092;1.02152;0.506989;-0.521988;0.0811621;5.675
0.121757;-0.856539;-0.577791;-0.474737;-2.092;1.02152;0.506989;-0.521988;0.0811621;5.68
0.121757;-0.856539;-0.577791;-0.474737;-2.092;1.02152;0.506989;-0.521988;0.0811621;5.685
0.121757;-0.856539;-0.577791;-0.474737;-2.092;1.02152;0.506989;-0.521988;0.0811621;5.69
0.222541;-0.978782;-0.652941;-0.466108;-2.10027;1.02285;0.509197;-0.527714;0.0694212;5.695
0.222541;-0.978782;-0.652941;-0.466108;-2.10027;1.02285;0.509197;-0.527714;0.0694212;5.7
-0.0991784;0.0699222;-0.910673;-0.457569;-2.1086;1.02399;0.502417;-0.532996;0.0524489;5.705
-0.0991784;0.0699222;-0.910673;-0.457569;-2.1086;1.02399;0.502417;-0.532996;0.0524489;5.71
-0.0991784;0.0699222;-0.910673;-0.457569;-2.1086;1.02399;0.502417;-0.532996;0.0524489;5.715
-0.0991784;0.0699222;-0.910673;-0.457569;-2.1086;1.02399;0.502417;-0.532996;0.0524489;5.72
-0.382026;0.350511;-1.04299;-0.449079;-2.11693;1.02498;0.490992;-0.530856;0.0320746;5.725
-0.382026;0.350511;-1.04299;-0.449079;-2.11693;1.02498;0.490992;-0.530856;0.0320746;5.73
-0.382026;0.350511;-1.04299;-0.449079;-2.11693;1.02498;0.490992;-0.530856;0.0320746;5.735
-0.447056;0.571679;-0.927992;-0.440692;-2.12513;1.02577;0.474785;-0.528164;0.0182162;5.74
-0.447056;0.571679;-0.927992;-0.440692;-2.12513;1.02577;0.474785;-0.528164;0.0182162;5.745
-0.447056;0.571679;-0.927992;-0.440692;-2.12513;1.02577;0.474785;-0.528164;0.0182162;5.75
-0.428311;0.493047;-0.585353;-0.432376;-2.13315;1.02626;0.458582;-0.525602;0.0131489;5.755
-0.428311;0.493047;-0.585353;-0.432376;-2.13315;1.02626;0.458582;-0.525602;0.0131489;5.76
-0.428311;0.493047;-0.585353;-0.432376;-2.13315;1.02626;0.458582;-0.525602;0.0131489;5.765
-0.428311;0.493047;-0.585353;-0.432376;-2.13315;1.02626;0.458582;-0.525602;0.0131489;5.77
-0.467545;0.537647;-0.00570295;-0.424154;-2.14104;1.02656;0.439483;-0.521564;0.0130923;5.775
-0.467545;0.537647;-0.00570295;-0.424154;-2.14104;1.02656;0.439483;-0.521564;0.0130923;5.78
-0.467545;0.537647;-0.00570295;-0.424154;-2.14104;1.02656;0.439483;-0.521564;0.0130923;5.785
-0.408161;0.594832;0.535383;-0.416169;-2.14881;1.0269;0.421453;-0.513827;0.0176223;5.79
-0.408161;0.594832;0.535383;-0.416169;-2.14881;1.0269;0.421453;-0.513827;0.0176223;5.795
-0.408161;0.594832;0.535383;-0.416169;-2.14881;1.0269;0.421453;-0.513827;0.0176223;5.8
-0.539684;0.515218;0.826878;-0.408512;-2.15645;1.02732;0.408791;-0.499781;0.0299333;5.805
-0.539684;0.515218;0.826878;-0.408512;-2.15645;1.02732;0.408791;-0.499781;0.0299333;5.81
-0.539684;0.515218;0.826878;-0.408512;-2.15645;1.02732;0.408791;-0.499781;0.0299333;5.815
-0.539684;0.515218;0.826878;-0.408512;-2.15645;1.02732;0.408791;-0.499781;0.0299333;5.82
-0.838837;0.733191;0.8125;-0.401103;-2.16398;1.02776;0.399229;-0.485763;0.0491721;5.825
-0.838837;0.733191;0.8125;-0.401103;-2.16398;1.02776;0.399229;-0.485763;0.0491721;5.83
-0.838837;0.733191;0.8125;-0.401103;-2.16398;1.02776;0.399229;-0.485763;0.0491721;5.835
-0.86337;0.507116;0.77795;-0.393838;-2.1714;1.02829;0.393411;-0.467438;0.063089;5.84
-0.86337;0.507116;0.77795;-0.393838;-2.1714;1.02829;0.393411;-0.467438;0.063089;5.845
-0.86337;0.507116;0.77795;-0.393838;-2.1714;1.02829;0.393411;-0.467438;0.063089;5.85
-0.806032;0.420431;0.54992;-0.386685;-2.17874;1.02896;0.389583;-0.452408;0.0684019;5.855
-0.806032;0.420431;0.54992;-0.386685;-2.17874;1.02896;0.389583;-0.452408;0.0684019;5.86
-0.806032;0.420431;0.54992;-0.386685;-2.17874;1.02896;0.389583;-0.452408;0.0684019;5.865
-0.806032;0.420431;0.54992;-0.386685;-2.17874;1.02896;0.389583;-0.452408;0.0684019;5.87
-0.50541;0.43205;0.0578864;-0.379672;-2.18597;1.02971;0.387674;-0.441887;0.0681232;5.875
-0.50541;0.43205;0.0578864;-0.379672;-2.18597;1.02971;0.387674;-0.441887;0.0681232;5.88
-0.50541;0.43205;0.0578864;-0.379672;-2.18597;1.02971;0.387674;-0.441887;0.0681232;5.885
-0.351126;0.352565;-0.0917415;-0.372781;-2.1931;1.03043;0.386755;-0.432925;0.0648951;5.89
-0.351126;0.352565;-0.0917415;-0.372781;-2.1931;1.03043;0.386755;-0.432925;0.0648951;5.895
-0.351126;0.352565;-0.0917415;-0.372781;-2.1931;1.03043;0.386755;-0.432925;0.0648951;5.9
-0.603872;0.454506;-0.370066;-0.366009;-2.20011;1.03108;0.386169;-0.424526;0.0593767;5.905
-0.603872;0.454506;-0.370066;-0.366009;-2.20011;1.03108;0.386169;-0.424526;0.0593767;5.91
-0.603872;0.454506;-0.370066;-0.366009;-2.20011;1.03108;0.386169;-0.424526;0.0593767;5.915
-0.603872;0.454506;-0.370066;-0.366009;-2.20011;1.03108;0.386169;-0.424526;0.0593767;5.92
-0.521049;0.389344;-0.448034;-0.359358;-2.20702;1.0317;0.380539;-0.416688;0.0519626;5.925
-0.521049;0.389344;-0.448034;-0.359358;-2.20702;1.0317;0.380539;-0.416688;0.0519626;5.93
-0.521049;0.389344;-0.448034;-0.359358;-2.20702;1.0317;0.380539;-0.416688;0.0519626;5.935
-0.521049;0.389344;-0.448034;-0.359358;-2.20702;1.0317;0.380539;-0.416688;0.0519626;5.94
-0.403877;0.137212;-0.573226;-0.352815;-2.21386;1.03228;0.373338;-0.408784;0.0417269;5.945
-0.403877;0.137212;-0.573226;-0.352815;-2.21386;1.03228;0.373338;-0.408784;0.0417269;5.95
-0.300083;0.115605;-0.659564;-0.346382;-2.22063;1.03284;0.365858;-0.405124;0.0293756;5.955
-0.300083;0.115605;-0.659564;-0.346382;-2.22063;1.03284;0.365858;-0.405124;0.0293756;5.96
-0.300083;0.115605;-0.659564;-0.346382;-2.22063;1.03284;0.365858;-0.405124;0.0293756;5.965
-0.300083;0.115605;-0.659564;-0.346382;-2.22063;1.03284;0.365858;-0.405124;0.0293756;5.97
-0.46068;0.268321;-0.732411;-0.340042;-2.22733;1.03336;0.362146;-0.404958;0.0159584;5.975
-0.46068;0.268321;-0.732411;-0.340042;-2.22733;1.03336;0.362146;-0.404958;0.0159584;5.98
-0.46068;0.268321;-0.732411;-0.340042;-2.22733;1.03336;0.362146;-0.404958;0.0159584;5.985
-0.601434;0.0570778;-0.620594;-0.333747;-2.23401;1.03376;0.359917;-0.401752;0.00542795;5.99
-0.601434;0.0570778;-0.620594;-0.333747;-2.23401;1.03376;0.359917;-0.401752;0.00542795;5.995
-0.601434;0.0570778;-0.620594;-0.333747;-2.23401;1.03376;0.359917;-0.401752;0.00542795;6
-0.601434;0.0570778;-0.620594;-0.333747;-2.23401;1.03376;0.359917;-0.401752;0.00542795;6.005
-0.209693;0.0923161;-0.471351;-0.327506;-2.24069;1.03399;0.36228;-0.397811;-0.00217651;6.01
-0.209693;0.0923161;-0.471351;-0.327506;-2.24069;1.03399;0.36228;-0.397811;-0.00217651;6.015
-0.209693;0.0923161;-0.471351;-0.327506;-2.24069;1.03399;0.36228;-0.397811;-0.00217651;6.02
0.177175;-0.0241226;-0.424413;-0.321313;-2.24735;1.0341;0.368867;-0.39456;-0.00804382;6.025
0.177175;-0.0241226;-0.424413;-0.321313;-2.24735;1.0341;0.368867;-0.39456;-0.00804382;6.03
0.177175;-0.0241226;-0.424413;-0.321313;-2.24735;1.0341;0.368867;-0.39456;-0.00804382;6.035
0.239396;-0.0598179;-0.336546;-0.315104;-2.25403;1.03411;0.372383;-0.39461;-0.0124426;6.04
0.239396;-0.0598179;-0.336546;-0.315104;-2.25403;1.03411;0.372383;-0.39461;-0.0124426;6.045
0.239396;-0.0598179;-0.336546;-0.315104;-2.25403;1.03411;0.372383;-0.39461;-0.0124426;6.05
-0.00224871;-0.12581;-0.330715;-0.308855;-2.2607;1.03401;0.375676;-0.395121;-0.0156514;6.055
-0.00224871;-0.12581;-0.330715;-0.308855;-2.2607;1.03401;0.375676;-0.395121;-0.0156514;6.06
-0.00224871;-0.12581;-0.330715;-0.308855;-2.2607;1.03401;0.375676;-0.395121;-0.0156514;6.065
-0.00224871;-0.12581;-0.330715;-0.308855;-2.2607;1.03401;0.375676;-0.395121;-0.0156514;6.07
-0.0867458;-0.00874888;-0.305368;-0.3026;-2.26739;1.03381;0.376108;-0.397585;-0.0169356;6.075
-0.0867458;-0.00874888;-0.305368;-0.3026;-2.26739;1.03381;0.376108;-0.397585;-0.0169356;6.08
-0.0867458;-0.00874888;-0.305368;-0.3026;-2.26739;1.03381;0.376108;-0.397585;-0.0169356;6.085
-0.0867458;-0.00874888;-0.305368;-0.3026;-2.26739;1.03381;0.376108;-0.397585;-0.0169356;6.09
0.12479;-0.27253;-0.079482;-0.296363;-2.27416;1.03353;0.377117;-0.39529;-0.0200113;6.095
0.12479;-0.27253;-0.079482;-0.296363;-2.27416;1.03353;0.377117;-0.39529;-0.0200113;6.1
0.0876478;-0.314893;-0.0946301;-0.29015;-2.28102;1.0332;0.377518;-0.395528;-0.0237801;6.105
0.0876478;-0.314893;-0.0946301;-0.29015;-2.28102;1.0332;0.377518;-0.395528;-0.0237801;6.11
0.0876478;-0.314893;-0.0946301;-0.29015;-2.28102;1.0332;0.377518;-0.395528;-0.0237801;6.115
0.0876478;-0.314893;-0.0946301;-0.29015;-2.28102;1.0332;0.377518;-0.395528;-0.0237801;6.12
0.0733901;-0.230247;-0.284913;-0.283956;-2.28796;1.0328;0.375147;-0.401908;-0.0272531;6.125
0.0733901;-0.230247;-0.284913;-0.283956;-2.28796;1.0328;0.375147;-0.401908;-0.0272531;6.13
0.0733901;-0.230247;-0.284913;-0.283956;-2.28796;1.0328;0.375147;-0.401908;-0.0272531;6.135
0.0733901;-0.230247;-0.284913;-0.283956;-2.28796;1.0328;0.375147;-0.401908;-0.0272531;6.14
-0.146545;-0.148177;-0.385051;-0.277787;-2.29496;1.03232;0.37366;-0.408037;-0.0313418;6.145
-0.146545;-0.148177;-0.385051;-0.277787;-2.29496;1.03232;0.37366;-0.408037;-0.0313418;6.15
-0.183827;-0.228016;-0.398752;-0.27165;-2.30197;1.03175;0.370571;-0.411671;-0.0364575;6.155
-0.183827;-0.228016;-0.398752;-0.27165;-2.30197;1.03175;0.370571;-0.411671;-0.0364575;6.16
-0.183827;-0.228016;-0.398752;-0.27165;-2.30197;1.03175;0.370571;-0.411671;-0.0364575;6.165
-0.183827;-0.228016;-0.398752;-0.27165;-2.30197;1.03175;0.370571;-0.411671;-0.0364575;6.17
-0.0889273;-0.270208;-0.354766;-0.265541;-2.30902;1.0311;0.368637;-0.414934;-0.0417464;6.175
-0.0889273;-0.270208;-0.354766;-0.265541;-2.30902;1.0311;0.368637;-0.414934;-0.0417464;6.18
-0.0889273;-0.270208;-0.354766;-0.265541;-2.30902;1.0311;0.368637;-0.414934;-0.0417464;6.185
0.014021;-0.302674;-0.257374;-0.25945;-2.31621;1.0304;0.366758;-0.421343;-0.0457458;6.19
0.014021;-0.302674;-0.257374;-0.25945;-2.31621;1.0304;0.366758;-0.421343;-0.0457458;6.195
0.014021;-0.302674;-0.257374;-0.25945;-2.31621;1.0304;0.366758;-0.421343;-0.0457458;6.2
-0.0992911;-0.597545;-0.595564;-0.253391;-2.32354;1.02964;0.365311;-0.431588;-0.0478018;6.205
-0.0992911;-0.597545;-0.595564;-0.253391;-2.32354;1.02964;0.365311;-0.431588;-0.0478018;6.21
-0.0992911;-0.597545;-0.595564;-0.253391;-2.32354;1.02964;0.365311;-0.431588;-0.0478018;6.215
-0.0992911;-0.597545;-0.595564;-0.253391;-2.32354;1.02964;0.365311;-0.431588;-0.0478018;6.22
0.010375;-0.698346;-0.631966;-0.247353;-2.331;1.02882;0.366223;-0.444676;-0.0484083;6.225
0.010375;-0.698346;-0.631966;-0.247353;-2.331;1.02882;0.366223;-0.444676;-0.0484083;6.23
0.010375;-0.698346;-0.631966;-0.247353;-2.331;1.02882;0.366223;-0.444676;-0.0484083;6.235
0.010375;-0.698346;-0.631966;-0.247353;-2.331;1.02882;0.366223;-0.444676;-0.0484083;6.24
0.143052;-0.683209;-0.156552;-0.241296;-2.33866;1.02795;0.368013;-0.457289;-0.0499699;6.245
0.143052;-0.683209;-0.156552;-0.241296;-2.33866;1.02795;0.368013;-0.457289;-0.0499699;6.25
0.143052;-0.683209;-0.156552;-0.241296;-2.33866;1.02795;0.368013;-0.457289;-0.0499699;6.255
0.0178518;-0.697875;-0.191922;-0.235235;-2.34658;1.02705;0.370084;-0.471771;-0.0517612;6.26
0.0178518;-0.697875;-0.191922;-0.235235;-2.34658;1.02705;0.370084;-0.471771;-0.0517612;6.265
0.0178518;-0.697875;-0.191922;-0.235235;-2.34658;1.02705;0.370084;-0.471771;-0.0517612;6.27
0.11939;-0.750245;-0.124651;-0.229155;-2.35471;1.02608;0.373046;-0.486447;-0.0538129;6.275
0.11939;-0.750245;-0.124651;-0.229155;-2.35471;1.02608;0.373046;-0.486447;-0.0538129;6.28
0.11939;-0.750245;-0.124651;-0.229155;-2.35471;1.02608;0.373046;-0.486447;-0.0538129;6.285
0.11939;-0.750245;-0.124651;-0.229155;-2.35471;1.02608;0.373046;-0.486447;-0.0538129;6.29
0.625017;-0.815488;-0.0936019;-0.222965;-2.36301;1.02505;0.377674;-0.49837;-0.0578558;6.295
0.625017;-0.815488;-0.0936019;-0.222965;-2.36301;1.02505;0.377674;-0.49837;-0.0578558;6.3
0.625017;-0.815488;-0.0936019;-0.222965;-2.36301;1.02505;0.377674;-0.49837;-0.0578558;6.305
0.781748;-0.851395;-0.434864;-0.216618;-2.37147;1.02393;0.38269;-0.510803;-0.0651428;6.31
0.781748;-0.851395;-0.434864;-0.216618;-2.37147;1.02393;0.38269;-0.510803;-0.0651428;6.315
0.781748;-0.851395;-0.434864;-0.216618;-2.37147;1.02393;0.38269;-0.510803;-0.0651428;6.32
0.329384;-0.682631;-0.728769;-0.210162;-2.3801;1.02275;0.395499;-0.521246;-0.0725577;6.325
0.329384;-0.682631;-0.728769;-0.210162;-2.3801;1.02275;0.395499;-0.521246;-0.0725577;6.33
0.329384;-0.682631;-0.728769;-0.210162;-2.3801;1.02275;0.395499;-0.521246;-0.0725577;6.335
-0.113811;-0.492938;-0.611839;-0.203645;-2.38899;1.02148;0.399283;-0.535208;-0.078536;6.34
-0.113811;-0.492938;-0.611839;-0.203645;-2.38899;1.02148;0.399283;-0.535208;-0.078536;6.345
-0.113811;-0.492938;-0.611839;-0.203645;-2.38899;1.02148;0.399283;-0.535208;-0.078536;6.35
0.0845628;-0.644564;-0.528306;-0.197083;-2.39811;1.02005;0.403334;-0.554684;-0.0812853;6.355
0.0845628;-0.644564;-0.528306;-0.197083;-2.39811;1.02005;0.403334;-0.554684;-0.0812853;6.36
0.0845628;-0.644564;-0.528306;-0.197083;-2.39811;1.02005;0.403334;-0.554684;-0.0812853;6.365
0.0845628;-0.644564;-0.528306;-0.197083;-2.39811;1.02005;0.403334;-0.554684;-0.0812853;6.37
0.0152633;-1.22399;-0.29801;-0.190468;-2.40748;1.01855;0.408757;-0.570966;-0.081627;6.375
0.0152633;-1.22399;-0.29801;-0.190468;-2.40748;1.01855;0.408757;-0.570966;-0.081627;6.38
0.0152633;-1.22399;-0.29801;-0.190468;-2.40748;1.01855;0.408757;-0.570966;-0.081627;6.385
0.351217;-1.38444;0.708384;-0.183811;-2.41718;1.01723;0.408173;-0.592112;-0.0766611;6.39
0.351217;-1.38444;0.708384;-0.183811;-2.41718;1.01723;0.408173;-0.592112;-0.0766611;6.395
0.351217;-1.38444;0.708384;-0.183811;-2.41718;1.01723;0.408173;-0.592112;-0.0766611;6.4
0.623696;-1.15667;0.887331;-0.17717;-2.42726;1.01611;0.413541;-0.618307;-0.0566892;6.405
0.623696;-1.15667;0.887331;-0.17717;-2.42726;1.01611;0.413541;-0.618307;-0.0566892;6.41
0.623696;-1.15667;0.887331;-0.17717;-2.42726;1.01611;0.413541;-0.618307;-0.0566892;6.415
0.623696;-1.15667;0.887331;-0.17717;-2.42726;1.01611;0.413541;-0.618307;-0.0566892;6.42
0.825917;-1.21505;1.18446;-0.170487;-2.43766;1.01518;0.415558;-0.649746;-0.0282911;6.425
0.825917;-1.21505;1.18446;-0.170487;-2.43766;1.01518;0.415558;-0.649746;-0.0282911;6.43
0.825917;-1.21505;1.18446;-0.170487;-2.43766;1.01518;0.415558;-0.649746;-0.0282911;6.435
0.408618;-1.2642;2.48031;-0.163596;-2.44829;1.01473;0.442967;-0.646421;0.00170602;6.44
0.408618;-1.2642;2.48031;-0.163596;-2.44829;1.01473;0.442967;-0.646421;0.00170602;6.445
0.408618;-1.2642;2.48031;-0.163596;-2.44829;1.01473;0.442967;-0.646421;0.00170602;6.45
0.840936;-0.380466;2.40517;-0.156386;-2.45922;1.01496;0.458237;-0.640571;0.0356314;6.455
0.840936;-0.380466;2.40517;-0.156386;-2.45922;1.01496;0.458237;-0.640571;0.0356314;6.46
0.840936;-0.380466;2.40517;-0.156386;-2.45922;1.01496;0.458237;-0.640571;0.0356314;6.465
0.840936;-0.380466;2.40517;-0.156386;-2.45922;1.01496;0.458237;-0.640571;0.0356314;6.47
0.658612;0.406811;1.63302;-0.148965;-2.47039;1.01568;0.469231;-0.639673;0.0718904;6.475
0.658612;0.406811;1.63302;-0.148965;-2.47039;1.01568;0.469231;-0.639673;0.0718904;6.48
0.658612;0.406811;1.63302;-0.148965;-2.47039;1.01568;0.469231;-0.639673;0.0718904;6.485
1.11355;0.956004;1.09437;-0.141476;-2.4815;1.01661;0.478019;-0.630884;0.0917153;6.49
1.11355;0.956004;1.09437;-0.141476;-2.4815;1.01661;0.478019;-0.630884;0.0917153;6.495
1.11355;0.956004;1.09437;-0.141476;-2.4815;1.01661;0.478019;-0.630884;0.0917153;6.5
-1.14688;-0.415098;-0.373319;-0.133918;-2.49248;1.01773;0.487973;-0.631256;0.0864549;6.505
-1.14688;-0.415098;-0.373319;-0.133918;-2.49248;1.01773;0.487973;-0.631256;0.0864549;6.51
-1.14688;-0.415098;-0.373319;-0.133918;-2.49248;1.01773;0.487973;-0.631256;0.0864549;6.515
-1.14688;-0.415098;-0.373319;-0.133918;-2.49248;1.01773;0.487973;-0.631256;0.0864549;6.52
0.327537;-0.330511;-0.956659;-0.126278;-2.50339;1.01907;0.482244;-0.646196;0.0672525;6.525
0.327537;-0.330511;-0.956659;-0.126278;-2.50339;1.01907;0.482244;-0.646196;0.0672525;6.53
0.327537;-0.330511;-0.956659;-0.126278;-2.50339;1.01907;0.482244;-0.646196;0.0672525;6.535
0.327537;-0.330511;-0.956659;-0.126278;-2.50339;1.01907;0.482244;-0.646196;0.0672525;6.54
1.33652;0.751907;-0.448948;-0.118676;-2.51412;1.02039;0.480534;-0.63917;0.0505091;6.545
1.33652;0.751907;-0.448948;-0.118676;-2.51412;1.02039;0.480534;-0.63917;0.0505091;6.55
-0.699047;0.790808;-0.34744;-0.111123;-2.52472;1.02167;0.475097;-0.625131;0.0463283;6.555
-0.699047;0.790808;-0.34744;-0.111123;-2.52472;1.02167;0.475097;-0.625131;0.0463283;6.56
-0.699047;0.790808;-0.34744;-0.111123;-2.52472;1.02167;0.475097;-0.625131;0.0463283;6.565
-0.699047;0.790808;-0.34744;-0.111123;-2.52472;1.02167;0.475097;-0.625131;0.0463283;6.57
-1.13234;0.775109;0.111001;-0.103603;-2.53514;1.02296;0.460984;-0.60212;0.0460884;6.575
-1.13234;0.775109;0.111001;-0.103603;-2.53514;1.02296;0.460984;-0.60212;0.0460884;6.58
-1.13234;0.775109;0.111001;-0.103603;-2.53514;1.02296;0.460984;-0.60212;0.0460884;6.585
-0.553411;1.22925;-0.06187;-0.096213;-2.54511;1.02415;0.451265;-0.575045;0.0470907;6.59
-0.553411;1.22925;-0.06187;-0.096213;-2.54511;1.02415;0.451265;-0.575045;0.0470907;6.595
-0.553411;1.22925;-0.06187;-0.096213;-2.54511;1.02415;0.451265;-0.575045;0.0470907;6.6
-0.189976;1.36908;-0.151192;-0.0890162;-2.55453;1.02516;0.448251;-0.546709;0.0476002;6.605
-0.189976;1.36908;-0.151192;-0.0890162;-2.55453;1.02516;0.448251;-0.546709;0.0476002;6.61
-0.189976;1.36908;-0.151192;-0.0890162;-2.55453;1.02516;0.448251;-0.546709;0.0476002;6.615
-0.189976;1.36908;-0.151192;-0.0890162;-2.55453;1.02516;0.448251;-0.546709;0.0476002;6.62
-0.0918096;1.7113;-0.0742821;-0.081961;-2.5635;1.02605;0.45148;-0.512535;0.049751;6.625
-0.0918096;1.7113;-0.0742821;-0.081961;-2.5635;1.02605;0.45148;-0.512535;0.049751;6.63
-0.0918096;1.7113;-0.0742821;-0.081961;-2.5635;1.02605;0.45148;-0.512535;0.049751;6.635
-0.0417307;1.55655;0.203194;-0.0749711;-2.57206;1.02694;0.451786;-0.481123;0.0517517;6.64
-0.0417307;1.55655;0.203194;-0.0749711;-2.57206;1.02694;0.451786;-0.481123;0.0517517;6.645
-0.0417307;1.55655;0.203194;-0.0749711;-2.57206;1.02694;0.451786;-0.481123;0.0517517;6.65
-0.186511;1.45826;0.207682;-0.0680224;-2.58021;1.02787;0.443306;-0.457132;0.0558675;6.655
-0.186511;1.45826;0.207682;-0.0680224;-2.58021;1.02787;0.443306;-0.457132;0.0558675;6.66
-0.186511;1.45826;0.207682;-0.0680224;-2.58021;1.02787;0.443306;-0.457132;0.0558675;6.665
-0.186511;1.45826;0.207682;-0.0680224;-2.58021;1.02787;0.443306;-0.457132;0.0558675;6.67
-0.563136;1.51645;0.268123;-0.0611331;-2.58795;1.02878;0.428301;-0.438677;0.0615055;6.675
-0.563136;1.51645;0.268123;-0.0611331;-2.58795;1.02878;0.428301;-0.438677;0.0615055;6.68
-0.563136;1.51645;0.268123;-0.0611331;-2.58795;1.02878;0.428301;-0.438677;0.0615055;6.685
-0.62018;1.23616;0.315909;-0.0542888;-2.59534;1.02966;0.415993;-0.421959;0.0638576;6.69
-0.62018;1.23616;0.315909;-0.0542888;-2.59534;1.02966;0.415993;-0.421959;0.0638576;6.695
-0.62018;1.23616;0.315909;-0.0542888;-2.59534;1.02966;0.415993;-0.421959;0.0638576;6.7
-0.539561;0.998312;0.106726;-0.0475019;-2.60235;1.03051;0.407088;-0.404272;0.0625445;6.705
-0.539561;0.998312;0.106726;-0.0475019;-2.60235;1.03051;0.407088;-0.404272;0.0625445;6.71
-0.539561;0.998312;0.106726;-0.0475019;-2.60235;1.03051;0.407088;-0.404272;0.0625445;6.715
-0.539561;0.998312;0.106726;-0.0475019;-2.60235;1.03051;0.407088;-0.404272;0.0625445;6.72
-0.372303;1.11979;-0.208518;-0.0407607;-2.60903;1.03132;0.403743;-0.389142;0.0608558;6.725
-0.372303;1.11979;-0.208518;-0.0407607;-2.60903;1.03132;0.403743;-0.389142;0.0608558;6.73
-0.372303;1.11979;-0.208518;-0.0407607;-2.60903;1.03132;0.403743;-0.389142;0.0608558;6.735
-0.372303;1.11979;-0.208518;-0.0407607;-2.60903;1.03132;0.403743;-0.389142;0.0608558;6.74
-0.138573;1.0927;-0.408141;-0.0340174;-2.61551;1.03202;0.401944;-0.378302;0.0569782;6.745
-0.138573;1.0927;-0.408141;-0.0340174;-2.61551;1.03202;0.401944;-0.378302;0.0569782;6.75
-0.0364413;0.803564;-0.503942;-0.027257;-2.62184;1.0326;0.403708;-0.36805;0.0485756;6.755
-0.0364413;0.803564;-0.503942;-0.027257;-2.62184;1.0326;0.403708;-0.36805;0.0485756;6.76
-0.0364413;0.803564;-0.503942;-0.027257;-2.62184;1.0326;0.403708;-0.36805;0.0485756;6.765
-0.0364413;0.803564;-0.503942;-0.027257;-2.62184;1.0326;0.403708;-0.36805;0.0485756;6.77
0.139153;0.532015;-0.466075;-0.0204943;-2.62798;1.03307;0.408518;-0.355127;0.0373681;6.775
0.139153;0.532015;-0.466075;-0.0204943;-2.62798;1.03307;0.408518;-0.355127;0.0373681;6.78
0.139153;0.532015;-0.466075;-0.0204943;-2.62798;1.03307;0.408518;-0.355127;0.0373681;6.785
0.174727;0.695881;-0.688792;-0.0137278;-2.63391;1.0334;0.414754;-0.341595;0.0277314;6.79
0.174727;0.695881;-0.688792;-0.0137278;-2.63391;1.0334;0.414754;-0.341595;0.0277314;6.795
0.174727;0.695881;-0.688792;-0.0137278;-2.63391;1.0334;0.414754;-0.341595;0.0277314;6.8
0.174727;0.695881;-0.688792;-0.0137278;-2.63391;1.0334;0.414754;-0.341595;0.0277314;6.805
0.156723;0.983061;-0.600769;-0.00698548;-2.63961;1.03357;0.419253;-0.325268;0.0185651;6.81
0.156723;0.983061;-0.600769;-0.00698548;-2.63961;1.03357;0.419253;-0.325268;0.0185651;6.815
0.156723;0.983061;-0.600769;-0.00698548;-2.63961;1.03357;0.419253;-0.325268;0.0185651;6.82
0.214301;1.10148;-0.579521;-0.0002398;-2.64511;1.0336;0.421508;-0.31085;0.00887905;6.825
0.214301;1.10148;-0.579521;-0.0002398;-2.64511;1.0336;0.421508;-0.31085;0.00887905;6.83
0.214301;1.10148;-0.579521;-0.0002398;-2.64511;1.0336;0.421508;-0.31085;0.00887905;6.835
0.214301;1.10148;-0.579521;-0.0002398;-2.64511;1.0336;0.421508;-0.31085;0.00887905;6.84
0.292217;0.793751;-0.399101;0.00659932;-2.65041;1.03352;0.42059;-0.297877;-9.65238e-05;6.845
0.292217;0.793751;-0.399101;0.00659932;-2.65041;1.03352;0.42059;-0.297877;-9.65238e-05;6.85
0.0948261;0.633607;-0.368459;0.0135833;-2.65548;1.03333;0.41954;-0.289855;-0.00624237;6.855
0.0948261;0.633607;-0.368459;0.0135833;-2.65548;1.03333;0.41954;-0.289855;-0.00624237;6.86
0.0948261;0.633607;-0.368459;0.0135833;-2.65548;1.03333;0.41954;-0.289855;-0.00624237;6.865
0.0948261;0.633607;-0.368459;0.0135833;-2.65548;1.03333;0.41954;-0.289855;-0.00624237;6.87
-0.012828;0.535958;-0.277835;0.020671;-2.66034;1.03304;0.416467;-0.285762;-0.0103876;6.875
-0.012828;0.535958;-0.277835;0.020671;-2.66034;1.03304;0.416467;-0.285762;-0.0103876;6.88
-0.012828;0.535958;-0.277835;0.020671;-2.66034;1.03304;0.416467;-0.285762;-0.0103876;6.885
0.0358953;0.394326;-0.234632;0.0278166;-2.66506;1.03268;0.415289;-0.280981;-0.0147652;6.89
0.0358953;0.394326;-0.234632;0.0278166;-2.66506;1.03268;0.415289;-0.280981;-0.0147652;6.895
0.0358953;0.394326;-0.234632;0.0278166;-2.66506;1.03268;0.415289;-0.280981;-0.0147652;6.9
0.0871693;0.44486;-0.339969;0.0349872;-2.66967;1.03226;0.41984;-0.275448;-0.020272;6.905
0.0871693;0.44486;-0.339969;0.0349872;-2.66967;1.03226;0.41984;-0.275448;-0.020272;6.91
0.0871693;0.44486;-0.339969;0.0349872;-2.66967;1.03226;0.41984;-0.275448;-0.020272;6.915
0.0871693;0.44486;-0.339969;0.0349872;-2.66967;1.03226;0.41984;-0.275448;-0.020272;6.92
0.36013;0.610534;-0.288971;0.0422168;-2.67413;1.03178;0.424823;-0.269423;-0.0254039;6.925
0.36013;0.610534;-0.288971;0.0422168;-2.67413;1.03178;0.424823;-0.269423;-0.0254039;6.93
0.36013;0.610534;-0.288971;0.0422168;-2.67413;1.03178;0.424823;-0.269423;-0.0254039;6.935
0.536371;0.372059;-0.175753;0.049555;-2.6785;1.03124;0.429351;-0.263287;-0.0303447;6.94
0.536371;0.372059;-0.175753;0.049555;-2.6785;1.03124;0.429351;-0.263287;-0.0303447;6.945
0.536371;0.372059;-0.175753;0.049555;-2.6785;1.03124;0.429351;-0.263287;-0.0303447;6.95
0.536371;0.372059;-0.175753;0.049555;-2.6785;1.03124;0.429351;-0.263287;-0.0303447;6.955
0.519238;0.160505;-0.217612;0.0570168;-2.68277;1.03064;0.436098;-0.255459;-0.0340848;6.96
0.519238;0.160505;-0.217612;0.0570168;-2.68277;1.03064;0.436098;-0.255459;-0.0340848;6.965
0.519238;0.160505;-0.217612;0.0570168;-2.68277;1.03064;0.436098;-0.255459;-0.0340848;6.97
0.421968;0.339802;-0.206915;0.0645817;-2.68693;1.02999;0.444898;-0.251739;-0.0367376;6.975
0.421968;0.339802;-0.206915;0.0645817;-2.68693;1.02999;0.444898;-0.251739;-0.0367376;6.98
0.421968;0.339802;-0.206915;0.0645817;-2.68693;1.02999;0.444898;-0.251739;-0.0367376;6.985
0.421968;0.339802;-0.206915;0.0645817;-2.68693;1.02999;0.444898;-0.251739;-0.0367376;6.99
0.377107;0.307274;-0.229559;0.0722441;-2.69101;1.02926;0.455971;-0.248216;-0.0404288;6.995
0.377107;0.307274;-0.229559;0.0722441;-2.69101;1.02926;0.455971;-0.248216;-0.0404288;7
0.491914;0.264448;-0.366852;0.0799785;-2.69501;1.02848;0.464513;-0.244956;-0.0464747;7.005
0.491914;0.264448;-0.366852;0.0799785;-2.69501;1.02848;0.464513;-0.244956;-0.0464747;7.01
0.491914;0.264448;-0.366852;0.0799785;-2.69501;1.02848;0.464513;-0.244956;-0.0464747;7.015
0.491914;0.264448;-0.366852;0.0799785;-2.69501;1.02848;0.464513;-0.244956;-0.0464747;7.02
0.571701;0.224436;-0.406755;0.087806;-2.69891;1.02763;0.471536;-0.240449;-0.0536904;7.025
0.571701;0.224436;-0.406755;0.087806;-2.69891;1.02763;0.471536;-0.240449;-0.0536904;7.03
0.571701;0.224436;-0.406755;0.087806;-2.69891;1.02763;0.471536;-0.240449;-0.0536904;7.035
0.571701;0.224436;-0.406755;0.087806;-2.69891;1.02763;0.471536;-0.240449;-0.0536904;7.04
0.558202;0.271269;-0.430892;0.0957935;-2.70273;1.0267;0.478466;-0.236463;-0.0602975;7.045
0.558202;0.271269;-0.430892;0.0957935;-2.70273;1.0267;0.478466;-0.236463;-0.0602975;7.05
0.663389;0.326663;-0.391351;0.103924;-2.70648;1.02565;0.487914;-0.231516;-0.0657488;7.055
0.663389;0.326663;-0.391351;0.103924;-2.70648;1.02565;0.487914;-0.231516;-0.0657488;7.06
0.663389;0.326663;-0.391351;0.103924;-2.70648;1.02565;0.487914;-0.231516;-0.0657488;7.065
0.663389;0.326663;-0.391351;0.103924;-2.70648;1.02565;0.487914;-0.231516;-0.0657488;7.07
0.703111;0.396131;-0.363038;0.112215;-2.71014;1.0245;0.500191;-0.223251;-0.0711341;7.075
0.703111;0.396131;-0.363038;0.112215;-2.71014;1.0245;0.500191;-0.223251;-0.0711341;7.08
0.703111;0.396131;-0.363038;0.112215;-2.71014;1.0245;0.500191;-0.223251;-0.0711341;7.085
0.932952;0.475158;-0.185395;0.12079;-2.71371;1.02333;0.511433;-0.219201;-0.0759138;7.09
0.932952;0.475158;-0.185395;0.12079;-2.71371;1.02333;0.511433;-0.219201;-0.0759138;7.095
0.932952;0.475158;-0.185395;0.12079;-2.71371;1.02333;0.511433;-0.219201;-0.0759138;7.1
0.949116;0.361716;-0.112365;0.129704;-2.71718;1.02216;0.527371;-0.21273;-0.0787354;7.105
0.949116;0.361716;-0.112365;0.129704;-2.71718;1.02216;0.527371;-0.21273;-0.0787354;7.11
0.949116;0.361716;-0.112365;0.129704;-2.71718;1.02216;0.527371;-0.21273;-0.0787354;7.115
0.949116;0.361716;-0.112365;0.129704;-2.71718;1.02216;0.527371;-0.21273;-0.0787354;7.12
1.13276;0.337482;-0.156147;0.138907;-2.72057;1.02096;0.547071;-0.20787;-0.0798753;7.125
1.13276;0.337482;-0.156147;0.138907;-2.72057;1.02096;0.547071;-0.20787;-0.0798753;7.13
1.13276;0.337482;-0.156147;0.138907;-2.72057;1.02096;0.547071;-0.20787;-0.0798753;7.135
1.13276;0.337482;-0.156147;0.138907;-2.72057;1.02096;0.547071;-0.20787;-0.0798753;7.14
1.01889;0.304362;-0.112672;0.148369;-2.72385;1.01969;0.564334;-0.207209;-0.0815275;7.145
1.01889;0.304362;-0.112672;0.148369;-2.72385;1.01969;0.564334;-0.207209;-0.0815275;7.15
0.943378;0.378076;-0.0781448;0.158074;-2.72707;1.01827;0.57879;-0.207504;-0.0877323;7.155
0.943378;0.378076;-0.0781448;0.158074;-2.72707;1.01827;0.57879;-0.207504;-0.0877323;7.16
0.943378;0.378076;-0.0781448;0.158074;-2.72707;1.01827;0.57879;-0.207504;-0.0877323;7.165
0.943378;0.378076;-0.0781448;0.158074;-2.72707;1.01827;0.57879;-0.207504;-0.0877323;7.17
0.757298;0.279003;-0.376596;0.168037;-2.7302;1.01679;0.59648;-0.20283;-0.0941365;7.175
0.757298;0.279003;-0.376596;0.168037;-2.7302;1.01679;0.59648;-0.20283;-0.0941365;7.18
0.757298;0.279003;-0.376596;0.168037;-2.7302;1.01679;0.59648;-0.20283;-0.0941365;7.185
0.914481;0.307599;-0.378894;0.17827;-2.73314;1.01541;0.612522;-0.198358;-0.0927127;7.19
0.914481;0.307599;-0.378894;0.17827;-2.73314;1.01541;0.612522;-0.198358;-0.0927127;7.195
0.914481;0.307599;-0.378894;0.17827;-2.73314;1.01541;0.612522;-0.198358;-0.0927127;7.2
0.914481;0.307599;-0.378894;0.17827;-2.73314;1.01541;0.612522;-0.198358;-0.0927127;7.205
0.906984;1.05327;0.415976;0.188776;-2.73585;1.01406;0.627315;-0.192126;-0.0802316;7.21
0.906984;1.05327;0.415976;0.188776;-2.73585;1.01406;0.627315;-0.192126;-0.0802316;7.215
0.906984;1.05327;0.415976;0.188776;-2.73585;1.01406;0.627315;-0.192126;-0.0802316;7.22
0.835886;1.19242;1.69534;0.199552;-2.73836;1.01281;0.643913;-0.191718;-0.0577585;7.225
0.835886;1.19242;1.69534;0.199552;-2.73836;1.01281;0.643913;-0.191718;-0.0577585;7.23
0.835886;1.19242;1.69534;0.199552;-2.73836;1.01281;0.643913;-0.191718;-0.0577585;7.235
1.60416;0.0934718;1.51807;0.210599;-2.74073;1.01205;0.666074;-0.170232;-0.0308301;7.24
1.60416;0.0934718;1.51807;0.210599;-2.74073;1.01205;0.666074;-0.170232;-0.0308301;7.245
1.60416;0.0934718;1.51807;0.210599;-2.74073;1.01205;0.666074;-0.170232;-0.0308301;7.25
1.86197;-0.00278947;2.08226;0.221989;-2.74283;1.01191;0.680288;-0.164631;0.00770107;7.255
1.86197;-0.00278947;2.08226;0.221989;-2.74283;1.01191;0.680288;-0.164631;0.00770107;7.26
1.86197;-0.00278947;2.08226;0.221989;-2.74283;1.01191;0.680288;-0.164631;0.00770107;7.265
1.86197;-0.00278947;2.08226;0.221989;-2.74283;1.01191;0.680288;-0.164631;0.00770107;7.27
1.18004;0.321488;3.12164;0.23365;-2.74479;1.01226;0.675471;-0.191601;0.0527895;7.275
1.18004;0.321488;3.12164;0.23365;-2.74479;1.01226;0.675471;-0.191601;0.0527895;7.28
1.18004;0.321488;3.12164;0.23365;-2.74479;1.01226;0.675471;-0.191601;0.0527895;7.285
-0.798428;-0.216672;1.46091;0.245371;-2.747;1.01307;0.696802;-0.17912;0.0865538;7.29
-0.798428;-0.216672;1.46091;0.245371;-2.747;1.01307;0.696802;-0.17912;0.0865538;7.295
-0.798428;-0.216672;1.46091;0.245371;-2.747;1.01307;0.696802;-0.17912;0.0865538;7.3
-0.0928244;-0.905094;1.10009;0.257039;-2.74972;1.01454;0.708043;-0.167089;0.101188;7.305
-0.0928244;-0.905094;1.10009;0.257039;-2.74972;1.01454;0.708043;-0.167089;0.101188;7.31
-0.0928244;-0.905094;1.10009;0.257039;-2.74972;1.01454;0.708043;-0.167089;0.101188;7.315
-0.0928244;-0.905094;1.10009;0.257039;-2.74972;1.01454;0.708043;-0.167089;0.101188;7.32
0.423518;-0.113946;0.238038;0.268768;-2.75269;1.01649;0.716602;-0.169398;0.106745;7.325
0.423518;-0.113946;0.238038;0.268768;-2.75269;1.01649;0.716602;-0.169398;0.106745;7.33
0.423518;-0.113946;0.238038;0.268768;-2.75269;1.01649;0.716602;-0.169398;0.106745;7.335
0.423518;-0.113946;0.238038;0.268768;-2.75269;1.01649;0.716602;-0.169398;0.106745;7.34
0.906092;0.690686;-0.125635;0.280683;-2.75548;1.01835;0.715873;-0.177981;0.10528;7.345
0.906092;0.690686;-0.125635;0.280683;-2.75548;1.01835;0.715873;-0.177981;0.10528;7.35
0.757009;0.260184;-0.497286;0.292915;-2.7579;1.02;0.723386;-0.175317;0.0961503;7.355
0.757009;0.260184;-0.497286;0.292915;-2.7579;1.02;0.723386;-0.175317;0.0961503;7.36
0.757009;0.260184;-0.497286;0.292915;-2.7579;1.02;0.723386;-0.175317;0.0961503;7.365
0.757009;0.260184;-0.497286;0.292915;-2.7579;1.02;0.723386;-0.175317;0.0961503;7.37
0.301358;-0.164268;-0.943926;0.305333;-2.76017;1.02159;0.738758;-0.16635;0.0803579;7.375
0.301358;-0.164268;-0.943926;0.305333;-2.76017;1.02159;0.738758;-0.16635;0.0803579;7.38
0.301358;-0.164268;-0.943926;0.305333;-2.76017;1.02159;0.738758;-0.16635;0.0803579;7.385
0.0788053;-0.450319;-1.16019;0.317663;-2.76245;1.02295;0.74715;-0.163674;0.0634973;7.39
0.0788053;-0.450319;-1.16019;0.317663;-2.76245;1.02295;0.74715;-0.163674;0.0634973;7.395
0.0788053;-0.450319;-1.16019;0.317663;-2.76245;1.02295;0.74715;-0.163674;0.0634973;7.4
-0.0825519;-0.336283;-1.11244;0.329833;-2.76487;1.02402;0.74503;-0.169524;0.0436309;7.405
-0.0825519;-0.336283;-1.11244;0.329833;-2.76487;1.02402;0.74503;-0.169524;0.0436309;7.41
-0.0825519;-0.336283;-1.11244;0.329833;-2.76487;1.02402;0.74503;-0.169524;0.0436309;7.415
-0.0825519;-0.336283;-1.11244;0.329833;-2.76487;1.02402;0.74503;-0.169524;0.0436309;7.42
-0.222386;-0.0445922;-1.19255;0.341919;-2.7673;1.02488;0.733659;-0.17411;0.0223373;7.425
-0.222386;-0.0445922;-1.19255;0.341919;-2.7673;1.02488;0.733659;-0.17411;0.0223373;7.43
-0.222386;-0.0445922;-1.19255;0.341919;-2.7673;1.02488;0.733659;-0.17411;0.0223373;7.435
-0.222386;-0.0445922;-1.19255;0.341919;-2.7673;1.02488;0.733659;-0.17411;0.0223373;7.44
-0.586455;0.556979;-0.960718;0.353877;-2.76965;1.02555;0.717184;-0.182747;0.00882828;7.445
-0.586455;0.556979;-0.960718;0.353877;-2.76965;1.02555;0.717184;-0.182747;0.00882828;7.45
-0.561913;0.451645;-0.771596;0.365745;-2.77184;1.02596;0.700006;-0.185424;0.00307369;7.455
-0.561913;0.451645;-0.771596;0.365745;-2.77184;1.02596;0.700006;-0.185424;0.00307369;7.46
-0.561913;0.451645;-0.771596;0.365745;-2.77184;1.02596;0.700006;-0.185424;0.00307369;7.465
-0.561913;0.451645;-0.771596;0.365745;-2.77184;1.02596;0.700006;-0.185424;0.00307369;7.47
-0.528119;0.522154;-0.226184;0.377491;-2.77393;1.02619;0.679888;-0.187781;0.00253642;7.475
-0.528119;0.522154;-0.226184;0.377491;-2.77393;1.02619;0.679888;-0.187781;0.00253642;7.48
-0.528119;0.522154;-0.226184;0.377491;-2.77393;1.02619;0.679888;-0.187781;0.00253642;7.485
-0.528119;0.522154;-0.226184;0.377491;-2.77393;1.02619;0.679888;-0.187781;0.00253642;7.49
-0.758715;0.568125;0.590776;0.388957;-2.776;1.02649;0.660394;-0.186595;0.00711635;7.495
-0.758715;0.568125;0.590776;0.388957;-2.776;1.02649;0.660394;-0.186595;0.00711635;7.5
-1.07827;0.202918;0.91336;0.400053;-2.77809;1.02691;0.640292;-0.176596;0.0201105;7.505
-1.07827;0.202918;0.91336;0.400053;-2.77809;1.02691;0.640292;-0.176596;0.0201105;7.51
-1.07827;0.202918;0.91336;0.400053;-2.77809;1.02691;0.640292;-0.176596;0.0201105;7.515
-1.07827;0.202918;0.91336;0.400053;-2.77809;1.02691;0.640292;-0.176596;0.0201105;7.52
-1.3072;0.0912647;1.00847;0.410858;-2.78017;1.02739;0.619628;-0.168125;0.0404995;7.525
-1.3072;0.0912647;1.00847;0.410858;-2.78017;1.02739;0.619628;-0.168125;0.0404995;7.53
-1.3072;0.0912647;1.00847;0.410858;-2.78017;1.02739;0.619628;-0.168125;0.0404995;7.535
-1.10963;-0.0179518;0.808057;0.42146;-2.78218;1.02801;0.59972;-0.162251;0.0580043;7.54
-1.10963;-0.0179518;0.808057;0.42146;-2.78218;1.02801;0.59972;-0.162251;0.0580043;7.545
-1.10963;-0.0179518;0.808057;0.42146;-2.78218;1.02801;0.59972;-0.162251;0.0580043;7.55
-0.786095;-0.22761;0.731443;0.431875;-2.78411;1.02885;0.587609;-0.152701;0.0678649;7.555
-0.786095;-0.22761;0.731443;0.431875;-2.78411;1.02885;0.587609;-0.152701;0.0678649;7.56
-0.786095;-0.22761;0.731443;0.431875;-2.78411;1.02885;0.587609;-0.152701;0.0678649;7.565
-0.786095;-0.22761;0.731443;0.431875;-2.78411;1.02885;0.587609;-0.152701;0.0678649;7.57
-0.531975;-0.0814935;0.24024;0.442087;-2.78598;1.02983;0.581073;-0.144704;0.0721296;7.575
-0.531975;-0.0814935;0.24024;0.442087;-2.78598;1.02983;0.581073;-0.144704;0.0721296;7.58
-0.531975;-0.0814935;0.24024;0.442087;-2.78598;1.02983;0.581073;-0.144704;0.0721296;7.585
-0.646577;0.147525;-0.132059;0.452137;-2.78779;1.03078;0.577302;-0.139784;0.071862;7.59
-0.646577;0.147525;-0.132059;0.452137;-2.78779;1.03078;0.577302;-0.139784;0.071862;7.595
-0.646577;0.147525;-0.132059;0.452137;-2.78779;1.03078;0.577302;-0.139784;0.071862;7.6
-0.669807;0.0188667;-0.239321;0.462036;-2.78952;1.03166;0.570403;-0.133419;0.0663344;7.605
-0.669807;0.0188667;-0.239321;0.462036;-2.78952;1.03166;0.570403;-0.133419;0.0663344;7.61
-0.669807;0.0188667;-0.239321;0.462036;-2.78952;1.03166;0.570403;-0.133419;0.0663344;7.615
-0.669807;0.0188667;-0.239321;0.462036;-2.78952;1.03166;0.570403;-0.133419;0.0663344;7.62
-0.672355;0.0891744;-0.431506;0.471773;-2.7912;1.03252;0.560749;-0.128293;0.0569646;7.625
-0.672355;0.0891744;-0.431506;0.471773;-2.7912;1.03252;0.560749;-0.128293;0.0569646;7.63
-0.672355;0.0891744;-0.431506;0.471773;-2.7912;1.03252;0.560749;-0.128293;0.0569646;7.635
-0.501152;-0.0473203;-0.614104;0.481358;-2.79289;1.03323;0.550965;-0.123204;0.0463416;7.64
-0.501152;-0.0473203;-0.614104;0.481358;-2.79289;1.03323;0.550965;-0.123204;0.0463416;7.645
-0.501152;-0.0473203;-0.614104;0.481358;-2.79289;1.03323;0.550965;-0.123204;0.0463416;7.65
-0.656037;-0.0384633;-0.715894;0.490783;-2.7946;1.03379;0.544615;-0.119731;0.0350427;7.655
-0.656037;-0.0384633;-0.715894;0.490783;-2.7946;1.03379;0.544615;-0.119731;0.0350427;7.66
-0.656037;-0.0384633;-0.715894;0.490783;-2.7946;1.03379;0.544615;-0.119731;0.0350427;7.665
-0.656037;-0.0384633;-0.715894;0.490783;-2.7946;1.03379;0.544615;-0.119731;0.0350427;7.67
-0.549813;-0.0278846;-0.700993;0.500066;-2.79632;1.0342;0.538514;-0.115002;0.0217632;7.675
-0.549813;-0.0278846;-0.700993;0.500066;-2.79632;1.0342;0.538514;-0.115002;0.0217632;7.68
-0.549813;-0.0278846;-0.700993;0.500066;-2.79632;1.0342;0.538514;-0.115002;0.0217632;7.685
-0.372628;0.00229878;-0.605403;0.509247;-2.79802;1.03446;0.530775;-0.111126;0.0103136;7.69
-0.372628;0.00229878;-0.605403;0.509247;-2.79802;1.03446;0.530775;-0.111126;0.0103136;7.695
-0.372628;0.00229878;-0.605403;0.509247;-2.79802;1.03446;0.530775;-0.111126;0.0103136;7.7
-0.411847;0.0631677;-0.596072;0.51832;-2.79972;1.03455;0.528943;-0.105312;0.000773642;7.705
-0.411847;0.0631677;-0.596072;0.51832;-2.79972;1.03455;0.528943;-0.105312;0.000773642;7.71
-0.411847;0.0631677;-0.596072;0.51832;-2.79972;1.03455;0.528943;-0.105312;0.000773642;7.715
-0.411847;0.0631677;-0.596072;0.51832;-2.79972;1.03455;0.528943;-0.105312;0.000773642;7.72
-0.229652;0.0941408;-0.467239;0.527294;-2.80142;1.03448;0.526943;-0.100308;-0.00645368;7.725
-0.229652;0.0941408;-0.467239;0.527294;-2.80142;1.03448;0.526943;-0.100308;-0.00645368;7.73
-0.229652;0.0941408;-0.467239;0.527294;-2.80142;1.03448;0.526943;-0.100308;-0.00645368;7.735
-0.132257;0.201888;-0.403593;0.536233;-2.80311;1.03432;0.523236;-0.0989068;-0.0119188;7.74
-0.132257;0.201888;-0.403593;0.536233;-2.80311;1.03432;0.523236;-0.0989068;-0.0119188;7.745
-0.132257;0.201888;-0.403593;0.536233;-2.80311;1.03432;0.523236;-0.0989068;-0.0119188;7.75
-0.302315;0.092056;-0.348755;0.545151;-2.80479;1.03409;0.520855;-0.0988593;-0.0157196;7.755
-0.302315;0.092056;-0.348755;0.545151;-2.80479;1.03409;0.520855;-0.0988593;-0.0157196;7.76
-0.302315;0.092056;-0.348755;0.545151;-2.80479;1.03409;0.520855;-0.0988593;-0.0157196;7.765
-0.302315;0.092056;-0.348755;0.545151;-2.80479;1.03409;0.520855;-0.0988593;-0.0157196;7.77
-0.166138;-0.0182155;-0.27193;0.554033;-2.80647;1.03378;0.519089;-0.0984984;-0.0182614;7.775
-0.166138;-0.0182155;-0.27193;0.554033;-2.80647;1.03378;0.519089;-0.0984984;-0.0182614;7.78
-0.166138;-0.0182155;-0.27193;0.554033;-2.80647;1.03378;0.519089;-0.0984984;-0.0182614;7.785
-0.166138;-0.0182155;-0.27193;0.554033;-2.80647;1.03378;0.519089;-0.0984984;-0.0182614;7.79
0.0820985;-0.169904;-0.128366;0.562895;-2.80819;1.03342;0.517244;-0.0956195;-0.0216571;7.795
0.0820985;-0.169904;-0.128366;0.562895;-2.80819;1.03342;0.517244;-0.0956195;-0.0216571;7.8
0.0820985;-0.169904;-0.128366;0.562895;-2.80819;1.03342;0.517244;-0.0956195;-0.0216571;7.805
0.363943;0.0670515;-0.0469087;0.571745;-2.80993;1.03303;0.515099;-0.0941549;-0.0266742;7.81
0.363943;0.0670515;-0.0469087;0.571745;-2.80993;1.03303;0.515099;-0.0941549;-0.0266742;7.815
0.363943;0.0670515;-0.0469087;0.571745;-2.80993;1.03303;0.515099;-0.0941549;-0.0266742;7.82
-0.0375952;0.0767658;-0.269983;0.580572;-2.81171;1.03258;0.517228;-0.0958538;-0.0313888;7.825
-0.0375952;0.0767658;-0.269983;0.580572;-2.81171;1.03258;0.517228;-0.0958538;-0.0313888;7.83
-0.0375952;0.0767658;-0.269983;0.580572;-2.81171;1.03258;0.517228;-0.0958538;-0.0313888;7.835
-0.282304;-0.131183;-0.466045;0.589377;-2.81354;1.03206;0.5199;-0.0974462;-0.0357548;7.84
-0.282304;-0.131183;-0.466045;0.589377;-2.81354;1.03206;0.5199;-0.0974462;-0.0357548;7.845
-0.282304;-0.131183;-0.466045;0.589377;-2.81354;1.03206;0.5199;-0.0974462;-0.0357548;7.85
-0.0509954;-0.139837;-0.388838;0.598144;-2.81544;1.03145;0.518998;-0.100837;-0.0404382;7.855
-0.0509954;-0.139837;-0.388838;0.598144;-2.81544;1.03145;0.518998;-0.100837;-0.0404382;7.86
-0.0509954;-0.139837;-0.388838;0.598144;-2.81544;1.03145;0.518998;-0.100837;-0.0404382;7.865
-0.0509954;-0.139837;-0.388838;0.598144;-2.81544;1.03145;0.518998;-0.100837;-0.0404382;7.87
-0.0698166;-0.192726;-0.322735;0.606883;-2.81738;1.03076;0.518711;-0.106367;-0.0450695;7.875
-0.0698166;-0.192726;-0.322735;0.606883;-2.81738;1.03076;0.518711;-0.106367;-0.0450695;7.88
-0.0698166;-0.192726;-0.322735;0.606883;-2.81738;1.03076;0.518711;-0.106367;-0.0450695;7.885
0.114329;-0.197839;-0.27226;0.615632;-2.8194;1.03;0.519551;-0.11257;-0.0493734;7.89
0.114329;-0.197839;-0.27226;0.615632;-2.8194;1.03;0.519551;-0.11257;-0.0493734;7.895
0.114329;-0.197839;-0.27226;0.615632;-2.8194;1.03;0.519551;-0.11257;-0.0493734;7.9
0.205943;-0.26683;-0.253768;0.62436;-2.82147;1.02917;0.521537;-0.120779;-0.0532193;7.905
0.205943;-0.26683;-0.253768;0.62436;-2.82147;1.02917;0.521537;-0.120779;-0.0532193;7.91
0.205943;-0.26683;-0.253768;0.62436;-2.82147;1.02917;0.521537;-0.120779;-0.0532193;7.915
0.205943;-0.26683;-0.253768;0.62436;-2.82147;1.02917;0.521537;-0.120779;-0.0532193;7.92
0.205943;-0.26683;-0.253768;0.62436;-2.82147;1.02917;0.521537;-0.120779;-0.0532193;7.925
0.206122;-0.551568;-0.284332;0.633095;-2.8236;1.02827;0.52669;-0.130933;-0.0561901;7.93
0.206122;-0.551568;-0.284332;0.633095;-2.8236;1.02827;0.52669;-0.130933;-0.0561901;7.935
0.396506;-0.612638;-0.163111;0.641971;-2.82589;1.02732;0.533986;-0.139291;-0.0588273;7.94
0.396506;-0.612638;-0.163111;0.641971;-2.82589;1.02732;0.533986;-0.139291;-0.0588273;7.945
0.396506;-0.612638;-0.163111;0.641971;-2.82589;1.02732;0.533986;-0.139291;-0.0588273;7.95
0.396506;-0.612638;-0.163111;0.641971;-2.82589;1.02732;0.533986;-0.139291;-0.0588273;7.955
0.437343;-0.605209;-0.111613;0.651027;-2.82839;1.02631;0.543609;-0.149226;-0.0603227;7.96
0.437343;-0.605209;-0.111613;0.651027;-2.82839;1.02631;0.543609;-0.149226;-0.0603227;7.965
0.437343;-0.605209;-0.111613;0.651027;-2.82839;1.02631;0.543609;-0.149226;-0.0603227;7.97
0.724117;-0.341096;-0.229635;0.660228;-2.83104;1.02525;0.554759;-0.161065;-0.0611333;7.975
0.724117;-0.341096;-0.229635;0.660228;-2.83104;1.02525;0.554759;-0.161065;-0.0611333;7.98
0.724117;-0.341096;-0.229635;0.660228;-2.83104;1.02525;0.554759;-0.161065;-0.0611333;7.985
0.77905;-0.154138;-0.104956;0.66959;-2.83375;1.02408;0.565228;-0.161996;-0.0648525;7.99
0.77905;-0.154138;-0.104956;0.66959;-2.83375;1.02408;0.565228;-0.161996;-0.0648525;7.995
0.77905;-0.154138;-0.104956;0.66959;-2.83375;1.02408;0.565228;-0.161996;-0.0648525;8
0.715847;-0.0573504;0.0114777;0.679118;-2.83646;1.02278;0.574346;-0.157659;-0.0740238;8.005
0.715847;-0.0573504;0.0114777;0.679118;-2.83646;1.02278;0.574346;-0.157659;-0.0740238;8.01
0.715847;-0.0573504;0.0114777;0.679118;-2.83646;1.02278;0.574346;-0.157659;-0.0740238;8.015
