XsensPlugin_processed_com_acceleration_x;XsensPlugin_processed_com_acceleration_y;XsensPlugin_processed_com_acceleration_z;XsensPlugin_processed_com_position_x;XsensPlugin_processed_com_position_y;XsensPlugin_processed_com_position_z;XsensPlugin_processed_com_velocity_x;XsensPlugin_processed_com_velocity_y;XsensPlugin_processed_com_velocity_z;t
0;0;0;0;0;0;0;0;0;0
0;0;0;0;0;0;0;0;0;0.005
0;0;0;0;0;0;0;0;0;0.01
0;0;0;0;0;0;0;0;0;0.015
0;0;0;0;0;0;0;0;0;0.02
0;0;0;0;0;0;0;0;0;0.025
0;0;0;0;0;0;0;0;0;0.03
0;0;0;0;0;0;0;0;0;0.035
0;0;0;0;0;0;0;0;0;0.04
0;0;0;0;0;0;0;0;0;0.045
0;0;0;0;0;0;0;0;0;0.05
0;0;0;0;0;0;0;0;0;0.055
0;0;0;0;0;0;0;0;0;0.06
0;0;0;0;0;0;0;0;0;0.065
0;0;0;0;0;0;0;0;0;0.07
0;0;0;0;0;0;0;0;0;0.075
0;0;0;0;0;0;0;0;0;0.08
0;0;0;0;0;0;0;0;0;0.085
0;0;0;0;0;0;0;0;0;0.09
0;0;0;0;0;0;0;0;0;0.095
0;0;0;0;0;0;0;0;0;0.1
0;0;0;0;0;0;0;0;0;0.105
0;0;0;0;0;0;0;0;0;0.11
0;0;0;0;0;0;0;0;0;0.115
0;0;0;0;0;0;0;0;0;0.12
0;0;0;0;0;0;0;0;0;0.125
0;0;0;0;0;0;0;0;0;0.13
0;0;0;0;0;0;0;0;0;0.135
0;0;0;0;0;0;0;0;0;0.14
0;0;0;0;0;0;0;0;0;0.145
0;0;0;0;0;0;0;0;0;0.15
0;0;0;0;0;0;0;0;0;0.155
0;0;0;0;0;0;0;0;0;0.16
0;0;0;0;0;0;0;0;0;0.165
0;0;0;0;0;0;0;0;0;0.17
0;0;0;0;0;0;0;0;0;0.175
0;0;0;0;0;0;0;0;0;0.18
0;0;0;0;0;0;0;0;0;0.185
0;0;0;0;0;0;0;0;0;0.19
0;0;0;0;0;0;0;0;0;0.195
0;0;0;0;0;0;0;0;0;0.2
0;0;0;0;0;0;0;0;0;0.205
0;0;0;0;0;0;0;0;0;0.21
0;0;0;0;0;0;0;0;0;0.215
0;0;0;0;0;0;0;0;0;0.22
0;0;0;0;0;0;0;0;0;0.225
0;0;0;0;0;0;0;0;0;0.23
0;0;0;0;0;0;0;0;0;0.235
0;0;0;0;0;0;0;0;0;0.24
0;0;0;0;0;0;0;0;0;0.245
0;0;0;0;0;0;0;0;0;0.25
0;0;0;0;0;0;0;0;0;0.255
0;0;0;0;0;0;0;0;0;0.26
0;0;0;0;0;0;0;0;0;0.265
0;0;0;0;0;0;0;0;0;0.27
0;0;0;0;0;0;0;0;0;0.275
0;0;0;0;0;0;0;0;0;0.28
0;0;0;0;0;0;0;0;0;0.285
0;0;0;0;0;0;0;0;0;0.29
0;0;0;0;0;0;0;0;0;0.295
0;0;0;0;0;0;0;0;0;0.3
0;0;0;0;0;0;0;0;0;0.305
0;0;0;0;0;0;0;0;0;0.31
0;0;0;0;0;0;0;0;0;0.315
0;0;0;0;0;0;0;0;0;0.32
0;0;0;0;0;0;0;0;0;0.325
0;0;0;0;0;0;0;0;0;0.33
0;0;0;0;0;0;0;0;0;0.335
0;0;0;0;0;0;0;0;0;0.34
0;0;0;0;0;0;0;0;0;0.345
0;0;0;0;0;0;0;0;0;0.35
0;0;0;0;0;0;0;0;0;0.355
0;0;0;0;0;0;0;0;0;0.36
0;0;0;0;0;0;0;0;0;0.365
0;0;0;0;0;0;0;0;0;0.37
0;0;0;0;0;0;0;0;0;0.375
0;0;0;0;0;0;0;0;0;0.38
0;0;0;0;0;0;0;0;0;0.385
0;0;0;0;0;0;0;0;0;0.39
0;0;0;0;0;0;0;0;0;0.395
0;0;0;0;0;0;0;0;0;0.4
0;0;0;0;0;0;0;0;0;0.405
0;0;0;0;0;0;0;0;0;0.41
0;0;0;0;0;0;0;0;0;0.415
0;0;0;0;0;0;0;0;0;0.42
0;0;0;0;0;0;0;0;0;0.425
0;0;0;0;0;0;0;0;0;0.43
0;0;0;0;0;0;0;0;0;0.435
0;0;0;0;0;0;0;0;0;0.44
0;0;0;0;0;0;0;0;0;0.445
0;0;0;0;0;0;0;0;0;0.45
0;0;0;0;0;0;0;0;0;0.455
0;0;0;0;0;0;0;0;0;0.46
0;0;0;0;0;0;0;0;0;0.465
0;0;0;0;0;0;0;0;0;0.47
0;0;0;0;0;0;0;0;0;0.475
0;0;0;0;0;0;0;0;0;0.48
0;0;0;0;0;0;0;0;0;0.485
0;0;0;0;0;0;0;0;0;0.49
0;0;0;0;0;0;0;0;0;0.495
0;0;0;0;0;0;0;0;0;0.5
0;0;0;0;0;0;0;0;0;0.505
0;0;0;0;0;0;0;0;0;0.51
0;0;0;0;0;0;0;0;0;0.515
0;0;0;0;0;0;0;0;0;0.52
0;0;0;0;0;0;0;0;0;0.525
0;0;0;0;0;0;0;0;0;0.53
0;0;0;0;0;0;0;0;0;0.535
0;0;0;0;0;0;0;0;0;0.54
0;0;0;0;0;0;0;0;0;0.545
0;0;0;0;0;0;0;0;0;0.55
0;0;0;0;0;0;0;0;0;0.555
0;0;0;0;0;0;0;0;0;0.56
0;0;0;0;0;0;0;0;0;0.565
0;0;0;0;0;0;0;0;0;0.57
0;0;0;0;0;0;0;0;0;0.575
0;0;0;0;0;0;0;0;0;0.58
0;0;0;0;0;0;0;0;0;0.585
0;0;0;0;0;0;0;0;0;0.59
0;0;0;0;0;0;0;0;0;0.595
0;0;0;0;0;0;0;0;0;0.6
0;0;0;0;0;0;0;0;0;0.605
0;0;0;0;0;0;0;0;0;0.61
0;0;0;0;0;0;0;0;0;0.615
0;0;0;0;0;0;0;0;0;0.62
0;0;0;0;0;0;0;0;0;0.625
0;0;0;0;0;0;0;0;0;0.63
0;0;0;0;0;0;0;0;0;0.635
0;0;0;0;0;0;0;0;0;0.64
0;0;0;0;0;0;0;0;0;0.645
0;0;0;0;0;0;0;0;0;0.65
0;0;0;0;0;0;0;0;0;0.655
0;0;0;0;0;0;0;0;0;0.66
0;0;0;0;0;0;0;0;0;0.665
0;0;0;0;0;0;0;0;0;0.67
0;0;0;0;0;0;0;0;0;0.675
0;0;0;0;0;0;0;0;0;0.68
0;0;0;0;0;0;0;0;0;0.685
0;0;0;0;0;0;0;0;0;0.69
0;0;0;0;0;0;0;0;0;0.695
0;0;0;0;0;0;0;0;0;0.7
0;0;0;0;0;0;0;0;0;0.705
0;0;0;0;0;0;0;0;0;0.71
0;0;0;0;0;0;0;0;0;0.715
0;0;0;0;0;0;0;0;0;0.72
0;0;0;0;0;0;0;0;0;0.725
0;0;0;0;0;0;0;0;0;0.73
0;0;0;0;0;0;0;0;0;0.735
0;0;0;0;0;0;0;0;0;0.74
0;0;0;0;0;0;0;0;0;0.745
0;0;0;0;0;0;0;0;0;0.75
0;0;0;0;0;0;0;0;0;0.755
0;0;0;0;0;0;0;0;0;0.76
0;0;0;0;0;0;0;0;0;0.765
0;0;0;0;0;0;0;0;0;0.77
0;0;0;0;0;0;0;0;0;0.775
0;0;0;0;0;0;0;0;0;0.78
0;0;0;0;0;0;0;0;0;0.785
0;0;0;0;0;0;0;0;0;0.79
0;0;0;0;0;0;0;0;0;0.795
0;0;0;0;0;0;0;0;0;0.8
0;0;0;0;0;0;0;0;0;0.805
0;0;0;0;0;0;0;0;0;0.81
0;0;0;0;0;0;0;0;0;0.815
0;0;0;0;0;0;0;0;0;0.82
0;0;0;0;0;0;0;0;0;0.825
0;0;0;0;0;0;0;0;0;0.83
0;0;0;0;0;0;0;0;0;0.835
0;0;0;0;0;0;0;0;0;0.84
0;0;0;0;0;0;0;0;0;0.845
0;0;0;0;0;0;0;0;0;0.85
0;0;0;0;0;0;0;0;0;0.855
0;0;0;0;0;0;0;0;0;0.86
0;0;0;0;0;0;0;0;0;0.865
0;0;0;0;0;0;0;0;0;0.87
0;0;0;0;0;0;0;0;0;0.875
0;0;0;0;0;0;0;0;0;0.88
0;0;0;0;0;0;0;0;0;0.885
0;0;0;0;0;0;0;0;0;0.89
0;0;0;0;0;0;0;0;0;0.895
0;0;0;0;0;0;0;0;0;0.9
0;0;0;0;0;0;0;0;0;0.905
0;0;0;0;0;0;0;0;0;0.91
0;0;0;0;0;0;0;0;0;0.915
0;0;0;0;0;0;0;0;0;0.92
0;0;0;0;0;0;0;0;0;0.925
0;0;0;0;0;0;0;0;0;0.93
0;0;0;0;0;0;0;0;0;0.935
0;0;0;0;0;0;0;0;0;0.94
0;0;0;0;0;0;0;0;0;0.945
0;0;0;0;0;0;0;0;0;0.95
0;0;0;0;0;0;0;0;0;0.955
0;0;0;0;0;0;0;0;0;0.96
0;0;0;0;0;0;0;0;0;0.965
0;0;0;0;0;0;0;0;0;0.97
0;0;0;0;0;0;0;0;0;0.975
0;0;0;0;0;0;0;0;0;0.98
0;0;0;0;0;0;0;0;0;0.985
0;0;0;0;0;0;0;0;0;0.99
0;0;0;0;0;0;0;0;0;0.995
0;0;0;0;0;0;0;0;0;1
0;0;0;0;0;0;0;0;0;1.005
0;0;0;0;0;0;0;0;0;1.01
0;0;0;0;0;0;0;0;0;1.015
0;0;0;0;0;0;0;0;0;1.02
0;0;0;0;0;0;0;0;0;1.025
0;0;0;0;0;0;0;0;0;1.03
0;0;0;0;0;0;0;0;0;1.035
0;0;0;0;0;0;0;0;0;1.04
0;0;0;0;0;0;0;0;0;1.045
0;0;0;0;0;0;0;0;0;1.05
0;0;0;0;0;0;0;0;0;1.055
0;0;0;0;0;0;0;0;0;1.06
0;0;0;0;0;0;0;0;0;1.065
0;0;0;0;0;0;0;0;0;1.07
0;0;0;0;0;0;0;0;0;1.075
0;0;0;0;0;0;0;0;0;1.08
0;0;0;0;0;0;0;0;0;1.085
0;0;0;0;0;0;0;0;0;1.09
0;0;0;0;0;0;0;0;0;1.095
0;0;0;0;0;0;0;0;0;1.1
0;0;0;0;0;0;0;0;0;1.105
0;0;0;0;0;0;0;0;0;1.11
0;0;0;0;0;0;0;0;0;1.115
0;0;0;0;0;0;0;0;0;1.12
0;0;0;0;0;0;0;0;0;1.125
0;0;0;0;0;0;0;0;0;1.13
0;0;0;0;0;0;0;0;0;1.135
0;0;0;0;0;0;0;0;0;1.14
0;0;0;0;0;0;0;0;0;1.145
0;0;0;0;0;0;0;0;0;1.15
0;0;0;0;0;0;0;0;0;1.155
0;0;0;0;0;0;0;0;0;1.16
0;0;0;0;0;0;0;0;0;1.165
0;0;0;0;0;0;0;0;0;1.17
0;0;0;0;0;0;0;0;0;1.175
0;0;0;0;0;0;0;0;0;1.18
0;0;0;0;0;0;0;0;0;1.185
0;0;0;0;0;0;0;0;0;1.19
0;0;0;0;0;0;0;0;0;1.195
0;0;0;0;0;0;0;0;0;1.2
0;0;0;0;0;0;0;0;0;1.205
0;0;0;0;0;0;0;0;0;1.21
0;0;0;0;0;0;0;0;0;1.215
0;0;0;0;0;0;0;0;0;1.22
0;0;0;0;0;0;0;0;0;1.225
0;0;0;0;0;0;0;0;0;1.23
0;0;0;0;0;0;0;0;0;1.235
0;0;0;0;0;0;0;0;0;1.24
0;0;0;0;0;0;0;0;0;1.245
0;0;0;0;0;0;0;0;0;1.25
0;0;0;0;0;0;0;0;0;1.255
0;0;0;0;0;0;0;0;0;1.26
0;0;0;0;0;0;0;0;0;1.265
0;0;0;0;0;0;0;0;0;1.27
0;0;0;0;0;0;0;0;0;1.275
0;0;0;0;0;0;0;0;0;1.28
0;0;0;0;0;0;0;0;0;1.285
0;0;0;0;0;0;0;0;0;1.29
0;0;0;0;0;0;0;0;0;1.295
0;0;0;0;0;0;0;0;0;1.3
0;0;0;0;0;0;0;0;0;1.305
0;0;0;0;0;0;0;0;0;1.31
0;0;0;0;0;0;0;0;0;1.315
0;0;0;0;0;0;0;0;0;1.32
0;0;0;0;0;0;0;0;0;1.325
0;0;0;0;0;0;0;0;0;1.33
0;0;0;0;0;0;0;0;0;1.335
0;0;0;0;0;0;0;0;0;1.34
0;0;0;0;0;0;0;0;0;1.345
0;0;0;0;0;0;0;0;0;1.35
0;0;0;0;0;0;0;0;0;1.355
0;0;0;0;0;0;0;0;0;1.36
0;0;0;0;0;0;0;0;0;1.365
0;0;0;0;0;0;0;0;0;1.37
0;0;0;0;0;0;0;0;0;1.375
0;0;0;0;0;0;0;0;0;1.38
0;0;0;0;0;0;0;0;0;1.385
0;0;0;0;0;0;0;0;0;1.39
0;0;0;0;0;0;0;0;0;1.395
0;0;0;0;0;0;0;0;0;1.4
0;0;0;0;0;0;0;0;0;1.405
0;0;0;0;0;0;0;0;0;1.41
0;0;0;0;0;0;0;0;0;1.415
0;0;0;0;0;0;0;0;0;1.42
0;0;0;0;0;0;0;0;0;1.425
0;0;0;0;0;0;0;0;0;1.43
0;0;0;0;0;0;0;0;0;1.435
0;0;0;0;0;0;0;0;0;1.44
0;0;0;0;0;0;0;0;0;1.445
0;0;0;0;0;0;0;0;0;1.45
0;0;0;0;0;0;0;0;0;1.455
0;0;0;0;0;0;0;0;0;1.46
0;0;0;0;0;0;0;0;0;1.465
0;0;0;0;0;0;0;0;0;1.47
0;0;0;0;0;0;0;0;0;1.475
0;0;0;0;0;0;0;0;0;1.48
0;0;0;0;0;0;0;0;0;1.485
0;0;0;0;0;0;0;0;0;1.49
0;0;0;0;0;0;0;0;0;1.495
0;0;0;0;0;0;0;0;0;1.5
0;0;0;0;0;0;0;0;0;1.505
0;0;0;0;0;0;0;0;0;1.51
0;0;0;0;0;0;0;0;0;1.515
0;0;0;0;0;0;0;0;0;1.52
0;0;0;0;0;0;0;0;0;1.525
0;0;0;0;0;0;0;0;0;1.53
0;0;0;0;0;0;0;0;0;1.535
0;0;0;0;0;0;0;0;0;1.54
0;0;0;0;0;0;0;0;0;1.545
0;0;0;0;0;0;0;0;0;1.55
0;0;0;0;0;0;0;0;0;1.555
0;0;0;0;0;0;0;0;0;1.56
0;0;0;0;0;0;0;0;0;1.565
0;0;0;0;0;0;0;0;0;1.57
0;0;0;0;0;0;0;0;0;1.575
0;0;0;0;0;0;0;0;0;1.58
0;0;0;0;0;0;0;0;0;1.585
0;0;0;0;0;0;0;0;0;1.59
0;0;0;0;0;0;0;0;0;1.595
0;0;0;0;0;0;0;0;0;1.6
0;0;0;0;0;0;0;0;0;1.605
0;0;0;0;0;0;0;0;0;1.61
0;0;0;0;0;0;0;0;0;1.615
0;0;0;0;0;0;0;0;0;1.62
0;0;0;0;0;0;0;0;0;1.625
0;0;0;0;0;0;0;0;0;1.63
0;0;0;0;0;0;0;0;0;1.635
0;0;0;0;0;0;0;0;0;1.64
0;0;0;0;0;0;0;0;0;1.645
0;0;0;0;0;0;0;0;0;1.65
0;0;0;0;0;0;0;0;0;1.655
0;0;0;0;0;0;0;0;0;1.66
0;0;0;0;0;0;0;0;0;1.665
0;0;0;0;0;0;0;0;0;1.67
0;0;0;0;0;0;0;0;0;1.675
0;0;0;0;0;0;0;0;0;1.68
0;0;0;0;0;0;0;0;0;1.685
0;0;0;0;0;0;0;0;0;1.69
0;0;0;0;0;0;0;0;0;1.695
0;0;0;0;0;0;0;0;0;1.7
0;0;0;0;0;0;0;0;0;1.705
0;0;0;0;0;0;0;0;0;1.71
0;0;0;0;0;0;0;0;0;1.715
0;0;0;0;0;0;0;0;0;1.72
0;0;0;0;0;0;0;0;0;1.725
0;0;0;0;0;0;0;0;0;1.73
0;0;0;0;0;0;0;0;0;1.735
0;0;0;0;0;0;0;0;0;1.74
0;0;0;0;0;0;0;0;0;1.745
0;0;0;0;0;0;0;0;0;1.75
0;0;0;0;0;0;0;0;0;1.755
0;0;0;0;0;0;0;0;0;1.76
0;0;0;0;0;0;0;0;0;1.765
0;0;0;0;0;0;0;0;0;1.77
0;0;0;0;0;0;0;0;0;1.775
0;0;0;0;0;0;0;0;0;1.78
0;0;0;0;0;0;0;0;0;1.785
0;0;0;0;0;0;0;0;0;1.79
0;0;0;0;0;0;0;0;0;1.795
0;0;0;0;0;0;0;0;0;1.8
0;0;0;0;0;0;0;0;0;1.805
0;0;0;0;0;0;0;0;0;1.81
0;0;0;0;0;0;0;0;0;1.815
0;0;0;0;0;0;0;0;0;1.82
0;0;0;0;0;0;0;0;0;1.825
0;0;0;0;0;0;0;0;0;1.83
0;0;0;0;0;0;0;0;0;1.835
0;0;0;0;0;0;0;0;0;1.84
0;0;0;0;0;0;0;0;0;1.845
0;0;0;0;0;0;0;0;0;1.85
0;0;0;0;0;0;0;0;0;1.855
0;0;0;0;0;0;0;0;0;1.86
0;0;0;0;0;0;0;0;0;1.865
0;0;0;0;0;0;0;0;0;1.87
0;0;0;0;0;0;0;0;0;1.875
0;0;0;0;0;0;0;0;0;1.88
0;0;0;0;0;0;0;0;0;1.885
0;0;0;0;0;0;0;0;0;1.89
0;0;0;0;0;0;0;0;0;1.895
0;0;0;0;0;0;0;0;0;1.9
0;0;0;0;0;0;0;0;0;1.905
0;0;0;0;0;0;0;0;0;1.91
0;0;0;0;0;0;0;0;0;1.915
0;0;0;0;0;0;0;0;0;1.92
0;0;0;0;0;0;0;0;0;1.925
0;0;0;0;0;0;0;0;0;1.93
0;0;0;0;0;0;0;0;0;1.935
0;0;0;0;0;0;0;0;0;1.94
0;0;0;0;0;0;0;0;0;1.945
0;0;0;0;0;0;0;0;0;1.95
0;0;0;0;0;0;0;0;0;1.955
0;0;0;0;0;0;0;0;0;1.96
0;0;0;0;0;0;0;0;0;1.965
0;0;0;0;0;0;0;0;0;1.97
0;0;0;0;0;0;0;0;0;1.975
0;0;0;0;0;0;0;0;0;1.98
0;0;0;0;0;0;0;0;0;1.985
0;0;0;0;0;0;0;0;0;1.99
0;0;0;0;0;0;0;0;0;1.995
0;0;0;0;0;0;0;0;0;2
0;0;0;0;0;0;0;0;0;2.005
0;0;0;0;0;0;0;0;0;2.01
0;0;0;0;0;0;0;0;0;2.015
0;0;0;0;0;0;0;0;0;2.02
0;0;0;0;0;0;0;0;0;2.025
0;0;0;0;0;0;0;0;0;2.03
0;0;0;0;0;0;0;0;0;2.035
0;0;0;0;0;0;0;0;0;2.04
0;0;0;0;0;0;0;0;0;2.045
0;0;0;0;0;0;0;0;0;2.05
0;0;0;0;0;0;0;0;0;2.055
0;0;0;0;0;0;0;0;0;2.06
0;0;0;0;0;0;0;0;0;2.065
0;0;0;0;0;0;0;0;0;2.07
0;0;0;0;0;0;0;0;0;2.075
0;0;0;0;0;0;0;0;0;2.08
0;0;0;0;0;0;0;0;0;2.085
0;0;0;0;0;0;0;0;0;2.09
0;0;0;0;0;0;0;0;0;2.095
0;0;0;0;0;0;0;0;0;2.1
0;0;0;0;0;0;0;0;0;2.105
0;0;0;0;0;0;0;0;0;2.11
0;0;0;0;0;0;0;0;0;2.115
0;0;0;0;0;0;0;0;0;2.12
0;0;0;0;0;0;0;0;0;2.125
0;0;0;0;0;0;0;0;0;2.13
0;0;0;0;0;0;0;0;0;2.135
0;0;0;0;0;0;0;0;0;2.14
0;0;0;0;0;0;0;0;0;2.145
0;0;0;0;0;0;0;0;0;2.15
0;0;0;0;0;0;0;0;0;2.155
0;0;0;0;0;0;0;0;0;2.16
0;0;0;0;0;0;0;0;0;2.165
0;0;0;0;0;0;0;0;0;2.17
0;0;0;0;0;0;0;0;0;2.175
0;0;0;0;0;0;0;0;0;2.18
0;0;0;0;0;0;0;0;0;2.185
0;0;0;0;0;0;0;0;0;2.19
0;0;0;0;0;0;0;0;0;2.195
0;0;0;0;0;0;0;0;0;2.2
0;0;0;0;0;0;0;0;0;2.205
0;0;0;0;0;0;0;0;0;2.21
0;0;0;0;0;0;0;0;0;2.215
0;0;0;0;0;0;0;0;0;2.22
0;0;0;0;0;0;0;0;0;2.225
0;0;0;0;0;0;0;0;0;2.23
0;0;0;0;0;0;0;0;0;2.235
0;0;0;0;0;0;0;0;0;2.24
0;0;0;0;0;0;0;0;0;2.245
0;0;0;0;0;0;0;0;0;2.25
0;0;0;0;0;0;0;0;0;2.255
0;0;0;0;0;0;0;0;0;2.26
0;0;0;0;0;0;0;0;0;2.265
0;0;0;0;0;0;0;0;0;2.27
0;0;0;0;0;0;0;0;0;2.275
0;0;0;0;0;0;0;0;0;2.28
0;0;0;0;0;0;0;0;0;2.285
0;0;0;0;0;0;0;0;0;2.29
0;0;0;0;0;0;0;0;0;2.295
0;0;0;0;0;0;0;0;0;2.3
0;0;0;0;0;0;0;0;0;2.305
0;0;0;0;0;0;0;0;0;2.31
0;0;0;0;0;0;0;0;0;2.315
0;0;0;0;0;0;0;0;0;2.32
0;0;0;0;0;0;0;0;0;2.325
0;0;0;0;0;0;0;0;0;2.33
0;0;0;0;0;0;0;0;0;2.335
0;0;0;0;0;0;0;0;0;2.34
0;0;0;0;0;0;0;0;0;2.345
0;0;0;0;0;0;0;0;0;2.35
0;0;0;0;0;0;0;0;0;2.355
0;0;0;0;0;0;0;0;0;2.36
0;0;0;0;0;0;0;0;0;2.365
0;0;0;0;0;0;0;0;0;2.37
0;0;0;0;0;0;0;0;0;2.375
0;0;0;0;0;0;0;0;0;2.38
0;0;0;0;0;0;0;0;0;2.385
0;0;0;0;0;0;0;0;0;2.39
0;0;0;0;0;0;0;0;0;2.395
0;0;0;0;0;0;0;0;0;2.4
0;0;0;0;0;0;0;0;0;2.405
0;0;0;0;0;0;0;0;0;2.41
0;0;0;0;0;0;0;0;0;2.415
0;0;0;0;0;0;0;0;0;2.42
0;0;0;0;0;0;0;0;0;2.425
0;0;0;0;0;0;0;0;0;2.43
0;0;0;0;0;0;0;0;0;2.435
0;0;0;0;0;0;0;0;0;2.44
0;0;0;0;0;0;0;0;0;2.445
0;0;0;0;0;0;0;0;0;2.45
0;0;0;0;0;0;0;0;0;2.455
0;0;0;0;0;0;0;0;0;2.46
0;0;0;0;0;0;0;0;0;2.465
0;0;0;0;0;0;0;0;0;2.47
0;0;0;0;0;0;0;0;0;2.475
0;0;0;0;0;0;0;0;0;2.48
0;0;0;0;0;0;0;0;0;2.485
0;0;0;0;0;0;0;0;0;2.49
0;0;0;0;0;0;0;0;0;2.495
0;0;0;0;0;0;0;0;0;2.5
0;0;0;0;0;0;0;0;0;2.505
0;0;0;0;0;0;0;0;0;2.51
0;0;0;0;0;0;0;0;0;2.515
0;0;0;0;0;0;0;0;0;2.52
0;0;0;0;0;0;0;0;0;2.525
0;0;0;0;0;0;0;0;0;2.53
0;0;0;0;0;0;0;0;0;2.535
0;0;0;0;0;0;0;0;0;2.54
0;0;0;0;0;0;0;0;0;2.545
0;0;0;0;0;0;0;0;0;2.55
0;0;0;0;0;0;0;0;0;2.555
0;0;0;0;0;0;0;0;0;2.56
0;0;0;0;0;0;0;0;0;2.565
0;0;0;0;0;0;0;0;0;2.57
0;0;0;0;0;0;0;0;0;2.575
0;0;0;0;0;0;0;0;0;2.58
0;0;0;0;0;0;0;0;0;2.585
0;0;0;0;0;0;0;0;0;2.59
0;0;0;0;0;0;0;0;0;2.595
0;0;0;0;0;0;0;0;0;2.6
0;0;0;0;0;0;0;0;0;2.605
0;0;0;0;0;0;0;0;0;2.61
0;0;0;0;0;0;0;0;0;2.615
0;0;0;0;0;0;0;0;0;2.62
0;0;0;0;0;0;0;0;0;2.625
0;0;0;0;0;0;0;0;0;2.63
0;0;0;0;0;0;0;0;0;2.635
0;0;0;0;0;0;0;0;0;2.64
0;0;0;0;0;0;0;0;0;2.645
0;0;0;0;0;0;0;0;0;2.65
0;0;0;0;0;0;0;0;0;2.655
0;0;0;0;0;0;0;0;0;2.66
0;0;0;0;0;0;0;0;0;2.665
0;0;0;0;0;0;0;0;0;2.67
0;0;0;0;0;0;0;0;0;2.675
0.362884;0.00912859;-0.265475;4.16849;-4.96106;1.03289;-0.012548;-0.0804008;-0.00457196;2.68
0.362884;0.00912859;-0.265475;4.16849;-4.96106;1.03289;-0.012548;-0.0804008;-0.00457196;2.685
0.362884;0.00912859;-0.265475;4.16849;-4.96106;1.03289;-0.012548;-0.0804008;-0.00457196;2.69
0.362884;0.00912859;-0.265475;4.16849;-4.96106;1.03289;-0.012548;-0.0804008;-0.00457196;2.695
0.362884;0.00912859;-0.265475;4.16849;-4.96106;1.03289;-0.012548;-0.0804008;-0.00457196;2.7
0.362884;0.00912859;-0.265475;4.16849;-4.96106;1.03289;-0.012548;-0.0804008;-0.00457196;2.705
0.362884;0.00912859;-0.265475;4.16849;-4.96106;1.03289;-0.012548;-0.0804008;-0.00457196;2.71
0.362884;0.00912859;-0.265475;4.16849;-4.96106;1.03289;-0.012548;-0.0804008;-0.00457196;2.715
0.362884;0.00912859;-0.265475;4.16849;-4.96106;1.03289;-0.012548;-0.0804008;-0.00457196;2.72
0.362884;0.00912859;-0.265475;4.16849;-4.96106;1.03289;-0.012548;-0.0804008;-0.00457196;2.725
0.362884;0.00912859;-0.265475;4.16849;-4.96106;1.03289;-0.012548;-0.0804008;-0.00457196;2.73
0.362884;0.00912859;-0.265475;4.16849;-4.96106;1.03289;-0.012548;-0.0804008;-0.00457196;2.735
0.362884;0.00912859;-0.265475;4.16849;-4.96106;1.03289;-0.012548;-0.0804008;-0.00457196;2.74
0.362884;0.00912859;-0.265475;4.16849;-4.96106;1.03289;-0.012548;-0.0804008;-0.00457196;2.745
0.362884;0.00912859;-0.265475;4.16849;-4.96106;1.03289;-0.012548;-0.0804008;-0.00457196;2.75
0.362884;0.00912859;-0.265475;4.16849;-4.96106;1.03289;-0.012548;-0.0804008;-0.00457196;2.755
0.362884;0.00912859;-0.265475;4.16849;-4.96106;1.03289;-0.012548;-0.0804008;-0.00457196;2.76
0.362884;0.00912859;-0.265475;4.16849;-4.96106;1.03289;-0.012548;-0.0804008;-0.00457196;2.765
0.362884;0.00912859;-0.265475;4.16849;-4.96106;1.03289;-0.012548;-0.0804008;-0.00457196;2.77
0.362884;0.00912859;-0.265475;4.16849;-4.96106;1.03289;-0.012548;-0.0804008;-0.00457196;2.775
0.362884;0.00912859;-0.265475;4.16849;-4.96106;1.03289;-0.012548;-0.0804008;-0.00457196;2.78
0.362884;0.00912859;-0.265475;4.16849;-4.96106;1.03289;-0.012548;-0.0804008;-0.00457196;2.785
0.362884;0.00912859;-0.265475;4.16849;-4.96106;1.03289;-0.012548;-0.0804008;-0.00457196;2.79
0.362884;0.00912859;-0.265475;4.16849;-4.96106;1.03289;-0.012548;-0.0804008;-0.00457196;2.795
0.362884;0.00912859;-0.265475;4.16849;-4.96106;1.03289;-0.012548;-0.0804008;-0.00457196;2.8
0.362884;0.00912859;-0.265475;4.16849;-4.96106;1.03289;-0.012548;-0.0804008;-0.00457196;2.805
0.362884;0.00912859;-0.265475;4.16849;-4.96106;1.03289;-0.012548;-0.0804008;-0.00457196;2.81
0.362884;0.00912859;-0.265475;4.16849;-4.96106;1.03289;-0.012548;-0.0804008;-0.00457196;2.815
0.362884;0.00912859;-0.265475;4.16849;-4.96106;1.03289;-0.012548;-0.0804008;-0.00457196;2.82
0.362884;0.00912859;-0.265475;4.16849;-4.96106;1.03289;-0.012548;-0.0804008;-0.00457196;2.825
0.362884;0.00912859;-0.265475;4.16849;-4.96106;1.03289;-0.012548;-0.0804008;-0.00457196;2.83
0.362884;0.00912859;-0.265475;4.16849;-4.96106;1.03289;-0.012548;-0.0804008;-0.00457196;2.835
0.362884;0.00912859;-0.265475;4.16849;-4.96106;1.03289;-0.012548;-0.0804008;-0.00457196;2.84
0.362884;0.00912859;-0.265475;4.16849;-4.96106;1.03289;-0.012548;-0.0804008;-0.00457196;2.845
0.362884;0.00912859;-0.265475;4.16849;-4.96106;1.03289;-0.012548;-0.0804008;-0.00457196;2.85
0.362884;0.00912859;-0.265475;4.16849;-4.96106;1.03289;-0.012548;-0.0804008;-0.00457196;2.855
0.362884;0.00912859;-0.265475;4.16849;-4.96106;1.03289;-0.012548;-0.0804008;-0.00457196;2.86
0.362884;0.00912859;-0.265475;4.16849;-4.96106;1.03289;-0.012548;-0.0804008;-0.00457196;2.865
0.362884;0.00912859;-0.265475;4.16849;-4.96106;1.03289;-0.012548;-0.0804008;-0.00457196;2.87
0.362884;0.00912859;-0.265475;4.16849;-4.96106;1.03289;-0.012548;-0.0804008;-0.00457196;2.875
0.362884;0.00912859;-0.265475;4.16849;-4.96106;1.03289;-0.012548;-0.0804008;-0.00457196;2.88
0.362884;0.00912859;-0.265475;4.16849;-4.96106;1.03289;-0.012548;-0.0804008;-0.00457196;2.885
0.362884;0.00912859;-0.265475;4.16849;-4.96106;1.03289;-0.012548;-0.0804008;-0.00457196;2.89
0.362884;0.00912859;-0.265475;4.16849;-4.96106;1.03289;-0.012548;-0.0804008;-0.00457196;2.895
0.362884;0.00912859;-0.265475;4.16849;-4.96106;1.03289;-0.012548;-0.0804008;-0.00457196;2.9
0.362884;0.00912859;-0.265475;4.16849;-4.96106;1.03289;-0.012548;-0.0804008;-0.00457196;2.905
0.362884;0.00912859;-0.265475;4.16849;-4.96106;1.03289;-0.012548;-0.0804008;-0.00457196;2.91
0.362884;0.00912859;-0.265475;4.16849;-4.96106;1.03289;-0.012548;-0.0804008;-0.00457196;2.915
0.362884;0.00912859;-0.265475;4.16849;-4.96106;1.03289;-0.012548;-0.0804008;-0.00457196;2.92
0.362884;0.00912859;-0.265475;4.16849;-4.96106;1.03289;-0.012548;-0.0804008;-0.00457196;2.925
0.362884;0.00912859;-0.265475;4.16849;-4.96106;1.03289;-0.012548;-0.0804008;-0.00457196;2.93
0.362884;0.00912859;-0.265475;4.16849;-4.96106;1.03289;-0.012548;-0.0804008;-0.00457196;2.935
0.362884;0.00912859;-0.265475;4.16849;-4.96106;1.03289;-0.012548;-0.0804008;-0.00457196;2.94
0.362884;0.00912859;-0.265475;4.16849;-4.96106;1.03289;-0.012548;-0.0804008;-0.00457196;2.945
0.362884;0.00912859;-0.265475;4.16849;-4.96106;1.03289;-0.012548;-0.0804008;-0.00457196;2.95
0.362884;0.00912859;-0.265475;4.16849;-4.96106;1.03289;-0.012548;-0.0804008;-0.00457196;2.955
0.362884;0.00912859;-0.265475;4.16849;-4.96106;1.03289;-0.012548;-0.0804008;-0.00457196;2.96
0.362884;0.00912859;-0.265475;4.16849;-4.96106;1.03289;-0.012548;-0.0804008;-0.00457196;2.965
0.362884;0.00912859;-0.265475;4.16849;-4.96106;1.03289;-0.012548;-0.0804008;-0.00457196;2.97
0.362884;0.00912859;-0.265475;4.16849;-4.96106;1.03289;-0.012548;-0.0804008;-0.00457196;2.975
0.362884;0.00912859;-0.265475;4.16849;-4.96106;1.03289;-0.012548;-0.0804008;-0.00457196;2.98
0.362884;0.00912859;-0.265475;4.16849;-4.96106;1.03289;-0.012548;-0.0804008;-0.00457196;2.985
0.362884;0.00912859;-0.265475;4.16849;-4.96106;1.03289;-0.012548;-0.0804008;-0.00457196;2.99
0.362884;0.00912859;-0.265475;4.16849;-4.96106;1.03289;-0.012548;-0.0804008;-0.00457196;2.995
0.362884;0.00912859;-0.265475;4.16849;-4.96106;1.03289;-0.012548;-0.0804008;-0.00457196;3
0.362884;0.00912859;-0.265475;4.16849;-4.96106;1.03289;-0.012548;-0.0804008;-0.00457196;3.005
0.362884;0.00912859;-0.265475;4.16849;-4.96106;1.03289;-0.012548;-0.0804008;-0.00457196;3.01
0.362884;0.00912859;-0.265475;4.16849;-4.96106;1.03289;-0.012548;-0.0804008;-0.00457196;3.015
0.362884;0.00912859;-0.265475;4.16849;-4.96106;1.03289;-0.012548;-0.0804008;-0.00457196;3.02
0.362884;0.00912859;-0.265475;4.16849;-4.96106;1.03289;-0.012548;-0.0804008;-0.00457196;3.025
0.362884;0.00912859;-0.265475;4.16849;-4.96106;1.03289;-0.012548;-0.0804008;-0.00457196;3.03
0.362884;0.00912859;-0.265475;4.16849;-4.96106;1.03289;-0.012548;-0.0804008;-0.00457196;3.035
0.362884;0.00912859;-0.265475;4.16849;-4.96106;1.03289;-0.012548;-0.0804008;-0.00457196;3.04
0.362884;0.00912859;-0.265475;4.16849;-4.96106;1.03289;-0.012548;-0.0804008;-0.00457196;3.045
0.362884;0.00912859;-0.265475;4.16849;-4.96106;1.03289;-0.012548;-0.0804008;-0.00457196;3.05
0.362884;0.00912859;-0.265475;4.16849;-4.96106;1.03289;-0.012548;-0.0804008;-0.00457196;3.055
0.362884;0.00912859;-0.265475;4.16849;-4.96106;1.03289;-0.012548;-0.0804008;-0.00457196;3.06
0.362884;0.00912859;-0.265475;4.16849;-4.96106;1.03289;-0.012548;-0.0804008;-0.00457196;3.065
0.362884;0.00912859;-0.265475;4.16849;-4.96106;1.03289;-0.012548;-0.0804008;-0.00457196;3.07
0.362884;0.00912859;-0.265475;4.16849;-4.96106;1.03289;-0.012548;-0.0804008;-0.00457196;3.075
0.362884;0.00912859;-0.265475;4.16849;-4.96106;1.03289;-0.012548;-0.0804008;-0.00457196;3.08
0.362884;0.00912859;-0.265475;4.16849;-4.96106;1.03289;-0.012548;-0.0804008;-0.00457196;3.085
0.362884;0.00912859;-0.265475;4.16849;-4.96106;1.03289;-0.012548;-0.0804008;-0.00457196;3.09
0.362884;0.00912859;-0.265475;4.16849;-4.96106;1.03289;-0.012548;-0.0804008;-0.00457196;3.095
0.362884;0.00912859;-0.265475;4.16849;-4.96106;1.03289;-0.012548;-0.0804008;-0.00457196;3.1
0.362884;0.00912859;-0.265475;4.16849;-4.96106;1.03289;-0.012548;-0.0804008;-0.00457196;3.105
0.362884;0.00912859;-0.265475;4.16849;-4.96106;1.03289;-0.012548;-0.0804008;-0.00457196;3.11
0.362884;0.00912859;-0.265475;4.16849;-4.96106;1.03289;-0.012548;-0.0804008;-0.00457196;3.115
0.362884;0.00912859;-0.265475;4.16849;-4.96106;1.03289;-0.012548;-0.0804008;-0.00457196;3.12
0.362884;0.00912859;-0.265475;4.16849;-4.96106;1.03289;-0.012548;-0.0804008;-0.00457196;3.125
0.362884;0.00912859;-0.265475;4.16849;-4.96106;1.03289;-0.012548;-0.0804008;-0.00457196;3.13
0.362884;0.00912859;-0.265475;4.16849;-4.96106;1.03289;-0.012548;-0.0804008;-0.00457196;3.135
0.874174;-0.359457;-0.341098;-1.19715;0.935856;1.02491;0.217768;-0.176829;-0.0368526;3.14
0.874174;-0.359457;-0.341098;-1.19715;0.935856;1.02491;0.217768;-0.176829;-0.0368526;3.145
0.874174;-0.359457;-0.341098;-1.19715;0.935856;1.02491;0.217768;-0.176829;-0.0368526;3.15
0.874174;-0.359457;-0.341098;-1.19715;0.935856;1.02491;0.217768;-0.176829;-0.0368526;3.155
0.922791;-0.45601;-0.448388;-1.19232;0.931925;1.0241;0.234924;-0.184091;-0.0426315;3.16
0.922791;-0.45601;-0.448388;-1.19232;0.931925;1.0241;0.234924;-0.184091;-0.0426315;3.165
0.922791;-0.45601;-0.448388;-1.19232;0.931925;1.0241;0.234924;-0.184091;-0.0426315;3.17
1.00638;-0.424824;-0.382299;-1.18721;0.927891;1.02313;0.25595;-0.193332;-0.0496818;3.175
1.00638;-0.424824;-0.382299;-1.18721;0.927891;1.02313;0.25595;-0.193332;-0.0496818;3.18
1.00638;-0.424824;-0.382299;-1.18721;0.927891;1.02313;0.25595;-0.193332;-0.0496818;3.185
1.03831;-0.452963;-0.571584;-1.18176;0.923702;1.02193;0.285563;-0.207892;-0.059701;3.19
1.03831;-0.452963;-0.571584;-1.18176;0.923702;1.02193;0.285563;-0.207892;-0.059701;3.195
1.03831;-0.452963;-0.571584;-1.18176;0.923702;1.02193;0.285563;-0.207892;-0.059701;3.2
1.03831;-0.452963;-0.571584;-1.18176;0.923702;1.02193;0.285563;-0.207892;-0.059701;3.205
1.38104;-0.544784;-0.566293;-1.17602;0.919408;1.02058;0.317597;-0.226521;-0.0722035;3.21
1.38104;-0.544784;-0.566293;-1.17602;0.919408;1.02058;0.317597;-0.226521;-0.0722035;3.215
1.38104;-0.544784;-0.566293;-1.17602;0.919408;1.02058;0.317597;-0.226521;-0.0722035;3.22
1.37797;-0.430162;-0.572066;-1.16987;0.915048;1.01913;0.350236;-0.243873;-0.081478;3.225
1.37797;-0.430162;-0.572066;-1.16987;0.915048;1.01913;0.350236;-0.243873;-0.081478;3.23
1.37797;-0.430162;-0.572066;-1.16987;0.915048;1.01913;0.350236;-0.243873;-0.081478;3.235
1.51073;-0.261129;-0.528806;-1.16326;0.910638;1.01751;0.385014;-0.256387;-0.0882082;3.24
1.51073;-0.261129;-0.528806;-1.16326;0.910638;1.01751;0.385014;-0.256387;-0.0882082;3.245
1.51073;-0.261129;-0.528806;-1.16326;0.910638;1.01751;0.385014;-0.256387;-0.0882082;3.25
1.51073;-0.261129;-0.528806;-1.16326;0.910638;1.01751;0.385014;-0.256387;-0.0882082;3.255
1.72542;-0.326889;-0.0822618;-1.15624;0.906165;1.01581;0.417173;-0.267258;-0.0902131;3.26
1.72542;-0.326889;-0.0822618;-1.15624;0.906165;1.01581;0.417173;-0.267258;-0.0902131;3.265
1.72542;-0.326889;-0.0822618;-1.15624;0.906165;1.01581;0.417173;-0.267258;-0.0902131;3.27
1.84671;-0.240409;0.757936;-1.14882;0.90162;1.01434;0.447772;-0.28103;-0.0825944;3.275
1.84671;-0.240409;0.757936;-1.14882;0.90162;1.01434;0.447772;-0.28103;-0.0825944;3.28
1.84671;-0.240409;0.757936;-1.14882;0.90162;1.01434;0.447772;-0.28103;-0.0825944;3.285
1.44031;-0.384004;1.47895;-1.14091;0.897061;1.01319;0.473034;-0.304508;-0.0614047;3.29
1.44031;-0.384004;1.47895;-1.14091;0.897061;1.01319;0.473034;-0.304508;-0.0614047;3.295
1.44031;-0.384004;1.47895;-1.14091;0.897061;1.01319;0.473034;-0.304508;-0.0614047;3.3
1.16295;-1.08235;1.20616;-1.13259;0.892426;1.01227;0.501226;-0.319751;-0.0318692;3.305
1.16295;-1.08235;1.20616;-1.13259;0.892426;1.01227;0.501226;-0.319751;-0.0318692;3.31
1.16295;-1.08235;1.20616;-1.13259;0.892426;1.01227;0.501226;-0.319751;-0.0318692;3.315
1.16295;-1.08235;1.20616;-1.13259;0.892426;1.01227;0.501226;-0.319751;-0.0318692;3.32
1.22854;-1.13679;1.77247;-1.12415;0.887528;1.01167;0.504814;-0.340609;-0.0088293;3.325
1.22854;-1.13679;1.77247;-1.12415;0.887528;1.01167;0.504814;-0.340609;-0.0088293;3.33
1.22854;-1.13679;1.77247;-1.12415;0.887528;1.01167;0.504814;-0.340609;-0.0088293;3.335
0.489083;-0.23886;1.20825;-1.1157;0.882209;1.01138;0.513864;-0.343594;0.000766986;3.34
0.489083;-0.23886;1.20825;-1.1157;0.882209;1.01138;0.513864;-0.343594;0.000766986;3.345
0.489083;-0.23886;1.20825;-1.1157;0.882209;1.01138;0.513864;-0.343594;0.000766986;3.35
0.489083;-0.23886;1.20825;-1.1157;0.882209;1.01138;0.513864;-0.343594;0.000766986;3.355
-0.0952354;-0.208779;-0.486908;-1.10712;0.876632;1.0114;0.547403;-0.319758;0.00450691;3.36
-0.0952354;-0.208779;-0.486908;-1.10712;0.876632;1.0114;0.547403;-0.319758;0.00450691;3.365
-0.0952354;-0.208779;-0.486908;-1.10712;0.876632;1.0114;0.547403;-0.319758;0.00450691;3.37
1.01253;0.81616;0.608457;-1.09825;0.871089;1.01175;0.534885;-0.330062;0.0119745;3.375
1.01253;0.81616;0.608457;-1.09825;0.871089;1.01175;0.534885;-0.330062;0.0119745;3.38
1.01253;0.81616;0.608457;-1.09825;0.871089;1.01175;0.534885;-0.330062;0.0119745;3.385
1.05696;-0.66823;1.39047;-1.08895;0.865753;1.01244;0.529157;-0.338873;0.0298961;3.39
1.05696;-0.66823;1.39047;-1.08895;0.865753;1.01244;0.529157;-0.338873;0.0298961;3.395
1.05696;-0.66823;1.39047;-1.08895;0.865753;1.01244;0.529157;-0.338873;0.0298961;3.4
1.05696;-0.66823;1.39047;-1.08895;0.865753;1.01244;0.529157;-0.338873;0.0298961;3.405
0.294768;-0.537108;1.23491;-1.07935;0.860449;1.01346;0.543244;-0.342968;0.0552713;3.41
0.294768;-0.537108;1.23491;-1.07935;0.860449;1.01346;0.543244;-0.342968;0.0552713;3.415
0.294768;-0.537108;1.23491;-1.07935;0.860449;1.01346;0.543244;-0.342968;0.0552713;3.42
-0.218396;0.0207935;1.34737;-1.06974;0.854949;1.01479;0.561083;-0.349394;0.0791207;3.425
-0.218396;0.0207935;1.34737;-1.06974;0.854949;1.01479;0.561083;-0.349394;0.0791207;3.43
-0.218396;0.0207935;1.34737;-1.06974;0.854949;1.01479;0.561083;-0.349394;0.0791207;3.435
-0.52323;0.115255;1.11427;-1.06014;0.849136;1.01659;0.572154;-0.348038;0.0975553;3.44
-0.52323;0.115255;1.11427;-1.06014;0.849136;1.01659;0.572154;-0.348038;0.0975553;3.445
-0.52323;0.115255;1.11427;-1.06014;0.849136;1.01659;0.572154;-0.348038;0.0975553;3.45
-0.52323;0.115255;1.11427;-1.06014;0.849136;1.01659;0.572154;-0.348038;0.0975553;3.455
-0.0333689;-0.411559;0.781149;-1.05052;0.843126;1.0187;0.561078;-0.35092;0.111985;3.46
-0.0333689;-0.411559;0.781149;-1.05052;0.843126;1.0187;0.561078;-0.35092;0.111985;3.465
-0.0333689;-0.411559;0.781149;-1.05052;0.843126;1.0187;0.561078;-0.35092;0.111985;3.47
0.0444159;-0.542918;0.168252;-1.04108;0.837049;1.02067;0.547008;-0.358652;0.119014;3.475
0.0444159;-0.542918;0.168252;-1.04108;0.837049;1.02067;0.547008;-0.358652;0.119014;3.48
0.0444159;-0.542918;0.168252;-1.04108;0.837049;1.02067;0.547008;-0.358652;0.119014;3.485
-0.232227;-0.562825;-0.255647;-1.03188;0.830954;1.02238;0.539348;-0.36921;0.11517;3.49
-0.232227;-0.562825;-0.255647;-1.03188;0.830954;1.02238;0.539348;-0.36921;0.11517;3.495
-0.232227;-0.562825;-0.255647;-1.03188;0.830954;1.02238;0.539348;-0.36921;0.11517;3.5
-0.232227;-0.562825;-0.255647;-1.03188;0.830954;1.02238;0.539348;-0.36921;0.11517;3.505
-0.490856;-0.397883;-0.531217;-1.02288;0.824789;1.02397;0.534954;-0.379204;0.10434;3.51
-0.490856;-0.397883;-0.531217;-1.02288;0.824789;1.02397;0.534954;-0.379204;0.10434;3.515
-0.490856;-0.397883;-0.531217;-1.02288;0.824789;1.02397;0.534954;-0.379204;0.10434;3.52
-0.595572;-0.232347;-0.62236;-1.01406;0.818539;1.02542;0.52713;-0.386658;0.0951086;3.525
-0.595572;-0.232347;-0.62236;-1.01406;0.818539;1.02542;0.52713;-0.386658;0.0951086;3.53
-0.595572;-0.232347;-0.62236;-1.01406;0.818539;1.02542;0.52713;-0.386658;0.0951086;3.535
-0.595572;-0.232347;-0.62236;-1.01406;0.818539;1.02542;0.52713;-0.386658;0.0951086;3.54
-0.669958;0.0693413;-0.458575;-1.00543;0.812168;1.02671;0.513285;-0.394663;0.0878195;3.545
-0.669958;0.0693413;-0.458575;-1.00543;0.812168;1.02671;0.513285;-0.394663;0.0878195;3.55
-0.669958;0.0693413;-0.458575;-1.00543;0.812168;1.02671;0.513285;-0.394663;0.0878195;3.555
-0.648774;0.131046;-0.463473;-0.996973;0.805715;1.02788;0.495008;-0.401795;0.0797249;3.56
-0.648774;0.131046;-0.463473;-0.996973;0.805715;1.02788;0.495008;-0.401795;0.0797249;3.565
-0.648774;0.131046;-0.463473;-0.996973;0.805715;1.02788;0.495008;-0.401795;0.0797249;3.57
-0.546467;0.142831;-0.384993;-0.988698;0.799284;1.0289;0.474056;-0.410106;0.0733985;3.575
-0.546467;0.142831;-0.384993;-0.988698;0.799284;1.0289;0.474056;-0.410106;0.0733985;3.58
-0.546467;0.142831;-0.384993;-0.988698;0.799284;1.0289;0.474056;-0.410106;0.0733985;3.585
-0.637888;-0.00752281;-0.243098;-0.980606;0.792944;1.02976;0.45624;-0.416526;0.068806;3.59
-0.637888;-0.00752281;-0.243098;-0.980606;0.792944;1.02976;0.45624;-0.416526;0.068806;3.595
-0.637888;-0.00752281;-0.243098;-0.980606;0.792944;1.02976;0.45624;-0.416526;0.068806;3.6
-0.74427;-0.354603;-0.116593;-0.972704;0.786624;1.03046;0.442888;-0.418327;0.0652781;3.605
-0.74427;-0.354603;-0.116593;-0.972704;0.786624;1.03046;0.442888;-0.418327;0.0652781;3.61
-0.74427;-0.354603;-0.116593;-0.972704;0.786624;1.03046;0.442888;-0.418327;0.0652781;3.615
-0.74427;-0.354603;-0.116593;-0.972704;0.786624;1.03046;0.442888;-0.418327;0.0652781;3.62
-0.775232;-0.450749;-0.236713;-0.965007;0.780213;1.03109;0.430955;-0.421004;0.0627545;3.625
-0.775232;-0.450749;-0.236713;-0.965007;0.780213;1.03109;0.430955;-0.421004;0.0627545;3.63
-0.775232;-0.450749;-0.236713;-0.965007;0.780213;1.03109;0.430955;-0.421004;0.0627545;3.635
-0.887521;-0.426569;-0.131175;-0.957549;0.773658;1.03168;0.425165;-0.421029;0.0595784;3.64
-0.887521;-0.426569;-0.131175;-0.957549;0.773658;1.03168;0.425165;-0.421029;0.0595784;3.645
-0.887521;-0.426569;-0.131175;-0.957549;0.773658;1.03168;0.425165;-0.421029;0.0595784;3.65
-0.887521;-0.426569;-0.131175;-0.957549;0.773658;1.03168;0.425165;-0.421029;0.0595784;3.655
-0.693639;-0.263756;-0.0773406;-0.950293;0.767014;1.03219;0.416662;-0.419489;0.0565878;3.66
-0.693639;-0.263756;-0.0773406;-0.950293;0.767014;1.03219;0.416662;-0.419489;0.0565878;3.665
-0.693639;-0.263756;-0.0773406;-0.950293;0.767014;1.03219;0.416662;-0.419489;0.0565878;3.67
-0.40415;-0.0696774;-0.166574;-0.943151;0.760338;1.03261;0.4068;-0.416227;0.0523547;3.675
-0.40415;-0.0696774;-0.166574;-0.943151;0.760338;1.03261;0.4068;-0.416227;0.0523547;3.68
-0.40415;-0.0696774;-0.166574;-0.943151;0.760338;1.03261;0.4068;-0.416227;0.0523547;3.685
-0.381153;0.0108696;-0.449191;-0.936081;0.753662;1.03294;0.399801;-0.415214;0.0450741;3.69
-0.381153;0.0108696;-0.449191;-0.936081;0.753662;1.03294;0.399801;-0.415214;0.0450741;3.695
-0.381153;0.0108696;-0.449191;-0.936081;0.753662;1.03294;0.399801;-0.415214;0.0450741;3.7
-0.381153;0.0108696;-0.449191;-0.936081;0.753662;1.03294;0.399801;-0.415214;0.0450741;3.705
-0.615347;-0.135198;-0.502956;-0.929114;0.746954;1.03318;0.394668;-0.413057;0.0367081;3.71
-0.615347;-0.135198;-0.502956;-0.929114;0.746954;1.03318;0.394668;-0.413057;0.0367081;3.715
-0.615347;-0.135198;-0.502956;-0.929114;0.746954;1.03318;0.394668;-0.413057;0.0367081;3.72
-0.51726;-0.251769;-0.409658;-0.922263;0.740186;1.03334;0.386626;-0.412765;0.0289959;3.725
-0.51726;-0.251769;-0.409658;-0.922263;0.740186;1.03334;0.386626;-0.412765;0.0289959;3.73
-0.51726;-0.251769;-0.409658;-0.922263;0.740186;1.03334;0.386626;-0.412765;0.0289959;3.735
-0.571571;-0.472681;-0.370807;-0.915534;0.733351;1.03343;0.377212;-0.417442;0.0224146;3.74
-0.571571;-0.472681;-0.370807;-0.915534;0.733351;1.03343;0.377212;-0.417442;0.0224146;3.745
-0.571571;-0.472681;-0.370807;-0.915534;0.733351;1.03343;0.377212;-0.417442;0.0224146;3.75
-0.636961;-0.338643;-0.467102;-0.908909;0.72646;1.03345;0.369806;-0.427007;0.0162677;3.755
-0.636961;-0.338643;-0.467102;-0.908909;0.72646;1.03345;0.369806;-0.427007;0.0162677;3.76
-0.636961;-0.338643;-0.467102;-0.908909;0.72646;1.03345;0.369806;-0.427007;0.0162677;3.765
-0.636961;-0.338643;-0.467102;-0.908909;0.72646;1.03345;0.369806;-0.427007;0.0162677;3.77
-0.55758;-0.314501;-0.449257;-0.902372;0.719502;1.0334;0.366434;-0.42956;0.00824128;3.775
-0.55758;-0.314501;-0.449257;-0.902372;0.719502;1.0334;0.366434;-0.42956;0.00824128;3.78
-0.55758;-0.314501;-0.449257;-0.902372;0.719502;1.0334;0.366434;-0.42956;0.00824128;3.785
-0.416676;-0.295879;-0.547619;-0.895918;0.712496;1.03331;0.357303;-0.429858;-0.00102687;3.79
-0.416676;-0.295879;-0.547619;-0.895918;0.712496;1.03331;0.357303;-0.429858;-0.00102687;3.795
-0.416676;-0.295879;-0.547619;-0.895918;0.712496;1.03331;0.357303;-0.429858;-0.00102687;3.8
-0.416676;-0.295879;-0.547619;-0.895918;0.712496;1.03331;0.357303;-0.429858;-0.00102687;3.805
-0.315299;-0.269011;-0.665785;-0.889552;0.705418;1.03315;0.356658;-0.429714;-0.0123798;3.81
-0.315299;-0.269011;-0.665785;-0.889552;0.705418;1.03315;0.356658;-0.429714;-0.0123798;3.815
-0.315299;-0.269011;-0.665785;-0.889552;0.705418;1.03315;0.356658;-0.429714;-0.0123798;3.82
-0.319856;-0.431608;-0.639286;-0.883286;0.698198;1.03286;0.355705;-0.431468;-0.0224621;3.825
-0.319856;-0.431608;-0.639286;-0.883286;0.698198;1.03286;0.355705;-0.431468;-0.0224621;3.83
-0.319856;-0.431608;-0.639286;-0.883286;0.698198;1.03286;0.355705;-0.431468;-0.0224621;3.835
-0.222936;-0.489296;-0.630906;-0.877152;0.690819;1.0324;0.356567;-0.435042;-0.0320868;3.84
-0.222936;-0.489296;-0.630906;-0.877152;0.690819;1.0324;0.356567;-0.435042;-0.0320868;3.845
-0.222936;-0.489296;-0.630906;-0.877152;0.690819;1.0324;0.356567;-0.435042;-0.0320868;3.85
-0.222936;-0.489296;-0.630906;-0.877152;0.690819;1.0324;0.356567;-0.435042;-0.0320868;3.855
-0.0986082;-0.609439;-0.608426;-0.871133;0.683287;1.03181;0.358376;-0.441149;-0.0411971;3.86
-0.0986082;-0.609439;-0.608426;-0.871133;0.683287;1.03181;0.358376;-0.441149;-0.0411971;3.865
-0.0986082;-0.609439;-0.608426;-0.871133;0.683287;1.03181;0.358376;-0.441149;-0.0411971;3.87
0.0324538;-0.709055;-0.476084;-0.865168;0.675566;1.03112;0.35655;-0.450004;-0.0493024;3.875
0.0324538;-0.709055;-0.476084;-0.865168;0.675566;1.03112;0.35655;-0.450004;-0.0493024;3.88
0.0324538;-0.709055;-0.476084;-0.865168;0.675566;1.03112;0.35655;-0.450004;-0.0493024;3.885
0.0637114;-0.741706;-0.40018;-0.859242;0.667656;1.03034;0.355691;-0.456643;-0.0570405;3.89
0.0637114;-0.741706;-0.40018;-0.859242;0.667656;1.03034;0.355691;-0.456643;-0.0570405;3.895
0.0637114;-0.741706;-0.40018;-0.859242;0.667656;1.03034;0.355691;-0.456643;-0.0570405;3.9
-0.156935;-0.661142;-0.356051;-0.853364;0.659569;1.02944;0.355;-0.46781;-0.0637378;3.905
-0.156935;-0.661142;-0.356051;-0.853364;0.659569;1.02944;0.355;-0.46781;-0.0637378;3.91
-0.156935;-0.661142;-0.356051;-0.853364;0.659569;1.02944;0.355;-0.46781;-0.0637378;3.915
-0.156935;-0.661142;-0.356051;-0.853364;0.659569;1.02944;0.355;-0.46781;-0.0637378;3.92
-0.178798;-0.579346;-0.529775;-0.847498;0.651293;1.02842;0.352829;-0.482018;-0.0691991;3.925
-0.178798;-0.579346;-0.529775;-0.847498;0.651293;1.02842;0.352829;-0.482018;-0.0691991;3.93
-0.178798;-0.579346;-0.529775;-0.847498;0.651293;1.02842;0.352829;-0.482018;-0.0691991;3.935
0.00351264;-0.79182;-0.463842;-0.841644;0.642867;1.0272;0.351012;-0.492365;-0.0747502;3.94
0.00351264;-0.79182;-0.463842;-0.841644;0.642867;1.0272;0.351012;-0.492365;-0.0747502;3.945
0.00351264;-0.79182;-0.463842;-0.841644;0.642867;1.0272;0.351012;-0.492365;-0.0747502;3.95
0.00351264;-0.79182;-0.463842;-0.841644;0.642867;1.0272;0.351012;-0.492365;-0.0747502;3.955
0.302509;-0.991547;-0.250904;-0.8358;0.634255;1.02584;0.35241;-0.500672;-0.0807842;3.96
0.302509;-0.991547;-0.250904;-0.8358;0.634255;1.02584;0.35241;-0.500672;-0.0807842;3.965
0.302509;-0.991547;-0.250904;-0.8358;0.634255;1.02584;0.35241;-0.500672;-0.0807842;3.97
-0.0163883;-1.07803;-0.435107;-0.829931;0.625326;1.02446;0.356537;-0.517422;-0.0845702;3.975
-0.0163883;-1.07803;-0.435107;-0.829931;0.625326;1.02446;0.356537;-0.517422;-0.0845702;3.98
-0.0163883;-1.07803;-0.435107;-0.829931;0.625326;1.02446;0.356537;-0.517422;-0.0845702;3.985
-0.219823;-1.37047;-0.278921;-0.824018;0.616013;1.02311;0.360816;-0.536378;-0.0887444;3.99
-0.219823;-1.37047;-0.278921;-0.824018;0.616013;1.02311;0.360816;-0.536378;-0.0887444;3.995
-0.219823;-1.37047;-0.278921;-0.824018;0.616013;1.02311;0.360816;-0.536378;-0.0887444;4
-0.219823;-1.37047;-0.278921;-0.824018;0.616013;1.02311;0.360816;-0.536378;-0.0887444;4.005
0.0483708;-1.4281;-0.174761;-0.818083;0.606372;1.02171;0.36079;-0.557934;-0.0929221;4.01
0.0483708;-1.4281;-0.174761;-0.818083;0.606372;1.02171;0.36079;-0.557934;-0.0929221;4.015
0.0483708;-1.4281;-0.174761;-0.818083;0.606372;1.02171;0.36079;-0.557934;-0.0929221;4.02
0.24845;-1.06703;-0.291286;-0.812155;0.596451;1.02021;0.358507;-0.579361;-0.0951488;4.025
0.24845;-1.06703;-0.291286;-0.812155;0.596451;1.02021;0.358507;-0.579361;-0.0951488;4.03
0.24845;-1.06703;-0.291286;-0.812155;0.596451;1.02021;0.358507;-0.579361;-0.0951488;4.035
0.244046;-0.820242;-0.195914;-0.806223;0.586272;1.01843;0.362337;-0.593177;-0.0967462;4.04
0.244046;-0.820242;-0.195914;-0.806223;0.586272;1.01843;0.362337;-0.593177;-0.0967462;4.045
0.244046;-0.820242;-0.195914;-0.806223;0.586272;1.01843;0.362337;-0.593177;-0.0967462;4.05
-0.0585589;-0.546389;-0.0865155;-0.800299;0.575812;1.01654;0.361504;-0.609609;-0.097651;4.055
-0.0585589;-0.546389;-0.0865155;-0.800299;0.575812;1.01654;0.361504;-0.609609;-0.097651;4.06
-0.0585589;-0.546389;-0.0865155;-0.800299;0.575812;1.01654;0.361504;-0.609609;-0.097651;4.065
-0.0585589;-0.546389;-0.0865155;-0.800299;0.575812;1.01654;0.361504;-0.609609;-0.097651;4.07
-0.449388;-1.02709;0.479826;-0.794441;0.565049;1.01493;0.361496;-0.624126;-0.0886683;4.075
-0.449388;-1.02709;0.479826;-0.794441;0.565049;1.01493;0.361496;-0.624126;-0.0886683;4.08
-0.449388;-1.02709;0.479826;-0.794441;0.565049;1.01493;0.361496;-0.624126;-0.0886683;4.085
-0.0191864;-0.810537;0.568923;-0.788723;0.553946;1.0136;0.367705;-0.647666;-0.0680192;4.09
-0.0191864;-0.810537;0.568923;-0.788723;0.553946;1.0136;0.367705;-0.647666;-0.0680192;4.095
-0.0191864;-0.810537;0.568923;-0.788723;0.553946;1.0136;0.367705;-0.647666;-0.0680192;4.1
-0.0191864;-0.810537;0.568923;-0.788723;0.553946;1.0136;0.367705;-0.647666;-0.0680192;4.105
-0.477877;-1.25857;1.07941;-0.783076;0.542541;1.01255;0.368278;-0.67024;-0.0410617;4.11
-0.477877;-1.25857;1.07941;-0.783076;0.542541;1.01255;0.368278;-0.67024;-0.0410617;4.115
-0.477877;-1.25857;1.07941;-0.783076;0.542541;1.01255;0.368278;-0.67024;-0.0410617;4.12
0.40335;-1.03274;1.93659;-0.777338;0.530925;1.01213;0.366283;-0.690396;-0.0101712;4.125
0.40335;-1.03274;1.93659;-0.777338;0.530925;1.01213;0.366283;-0.690396;-0.0101712;4.13
0.40335;-1.03274;1.93659;-0.777338;0.530925;1.01213;0.366283;-0.690396;-0.0101712;4.135
0.847547;-1.10574;3.08105;-0.771461;0.51909;1.01258;0.386906;-0.678715;0.0256363;4.14
0.847547;-1.10574;3.08105;-0.771461;0.51909;1.01258;0.386906;-0.678715;0.0256363;4.145
0.847547;-1.10574;3.08105;-0.771461;0.51909;1.01258;0.386906;-0.678715;0.0256363;4.15
0.847547;-1.10574;3.08105;-0.771461;0.51909;1.01258;0.386906;-0.678715;0.0256363;4.155
1.28911;0.525417;2.14676;-0.76549;0.507041;1.01367;0.392833;-0.677462;0.0628641;4.16
1.28911;0.525417;2.14676;-0.76549;0.507041;1.01367;0.392833;-0.677462;0.0628641;4.165
1.28911;0.525417;2.14676;-0.76549;0.507041;1.01367;0.392833;-0.677462;0.0628641;4.17
-0.672776;0.546764;0.63054;-0.759397;0.494895;1.01511;0.389556;-0.690267;0.0884364;4.175
-0.672776;0.546764;0.63054;-0.759397;0.494895;1.01511;0.389556;-0.690267;0.0884364;4.18
-0.672776;0.546764;0.63054;-0.759397;0.494895;1.01511;0.389556;-0.690267;0.0884364;4.185
-1.29597;-0.442651;-0.215269;-0.753124;0.482645;1.017;0.392669;-0.710346;0.0946918;4.19
-1.29597;-0.442651;-0.215269;-0.753124;0.482645;1.017;0.392669;-0.710346;0.0946918;4.195
-1.29597;-0.442651;-0.215269;-0.753124;0.482645;1.017;0.392669;-0.710346;0.0946918;4.2
1.31647;-0.535293;0.279427;-0.746725;0.470301;1.01926;0.388447;-0.729291;0.0874418;4.205
1.31647;-0.535293;0.279427;-0.746725;0.470301;1.01926;0.388447;-0.729291;0.0874418;4.21
1.31647;-0.535293;0.279427;-0.746725;0.470301;1.01926;0.388447;-0.729291;0.0874418;4.215
1.31647;-0.535293;0.279427;-0.746725;0.470301;1.01926;0.388447;-0.729291;0.0874418;4.22
0.728189;-0.330108;-0.10967;-0.74034;0.458015;1.02131;0.395687;-0.736248;0.0807646;4.225
0.728189;-0.330108;-0.10967;-0.74034;0.458015;1.02131;0.395687;-0.736248;0.0807646;4.23
0.728189;-0.330108;-0.10967;-0.74034;0.458015;1.02131;0.395687;-0.736248;0.0807646;4.235
-0.0787255;0.232402;-0.298084;-0.733981;0.445781;1.02298;0.393746;-0.732871;0.0768488;4.24
-0.0787255;0.232402;-0.298084;-0.733981;0.445781;1.02298;0.393746;-0.732871;0.0768488;4.245
-0.0787255;0.232402;-0.298084;-0.733981;0.445781;1.02298;0.393746;-0.732871;0.0768488;4.25
-0.0787255;0.232402;-0.298084;-0.733981;0.445781;1.02298;0.393746;-0.732871;0.0768488;4.255
-0.296517;0.490957;-0.522035;-0.727616;0.433621;1.02448;0.383094;-0.720254;0.0726146;4.26
-0.296517;0.490957;-0.522035;-0.727616;0.433621;1.02448;0.383094;-0.720254;0.0726146;4.265
-0.296517;0.490957;-0.522035;-0.727616;0.433621;1.02448;0.383094;-0.720254;0.0726146;4.27
-0.255923;0.502735;-0.64212;-0.721332;0.421726;1.02582;0.381675;-0.704467;0.0681063;4.275
-0.255923;0.502735;-0.64212;-0.721332;0.421726;1.02582;0.381675;-0.704467;0.0681063;4.28
-0.255923;0.502735;-0.64212;-0.721332;0.421726;1.02582;0.381675;-0.704467;0.0681063;4.285
0.0656872;0.737304;-0.485208;-0.715219;0.410127;1.02695;0.386742;-0.688032;0.0609181;4.29
0.0656872;0.737304;-0.485208;-0.715219;0.410127;1.02695;0.386742;-0.688032;0.0609181;4.295
0.0656872;0.737304;-0.485208;-0.715219;0.410127;1.02695;0.386742;-0.688032;0.0609181;4.3
0.0656872;0.737304;-0.485208;-0.715219;0.410127;1.02695;0.386742;-0.688032;0.0609181;4.305
0.0506651;1.03624;-0.457568;-0.709204;0.39878;1.02791;0.396279;-0.665569;0.0525349;4.31
0.0506651;1.03624;-0.457568;-0.709204;0.39878;1.02791;0.396279;-0.665569;0.0525349;4.315
0.0506651;1.03624;-0.457568;-0.709204;0.39878;1.02791;0.396279;-0.665569;0.0525349;4.32
0.234965;0.929481;-0.189201;-0.70313;0.38775;1.0288;0.406434;-0.639198;0.0485816;4.325
0.234965;0.929481;-0.189201;-0.70313;0.38775;1.0288;0.406434;-0.639198;0.0485816;4.33
0.234965;0.929481;-0.189201;-0.70313;0.38775;1.0288;0.406434;-0.639198;0.0485816;4.335
0.46569;0.944778;0.335193;-0.696956;0.37711;1.02962;0.40884;-0.620406;0.0555298;4.34
0.46569;0.944778;0.335193;-0.696956;0.37711;1.02962;0.40884;-0.620406;0.0555298;4.345
0.46569;0.944778;0.335193;-0.696956;0.37711;1.02962;0.40884;-0.620406;0.0555298;4.35
0.40532;0.939783;0.496384;-0.690715;0.366798;1.03036;0.406526;-0.605747;0.0662507;4.355
0.40532;0.939783;0.496384;-0.690715;0.366798;1.03036;0.406526;-0.605747;0.0662507;4.36
0.40532;0.939783;0.496384;-0.690715;0.366798;1.03036;0.406526;-0.605747;0.0662507;4.365
0.40532;0.939783;0.496384;-0.690715;0.366798;1.03036;0.406526;-0.605747;0.0662507;4.37
-0.0229704;1.23547;0.641861;-0.684361;0.356674;1.03112;0.400437;-0.596474;0.0743921;4.375
-0.0229704;1.23547;0.641861;-0.684361;0.356674;1.03112;0.400437;-0.596474;0.0743921;4.38
-0.0229704;1.23547;0.641861;-0.684361;0.356674;1.03112;0.400437;-0.596474;0.0743921;4.385
-0.271396;0.655554;0.452847;-0.677834;0.346692;1.03195;0.391186;-0.579413;0.076199;4.39
-0.271396;0.655554;0.452847;-0.677834;0.346692;1.03195;0.391186;-0.579413;0.076199;4.395
-0.271396;0.655554;0.452847;-0.677834;0.346692;1.03195;0.391186;-0.579413;0.076199;4.4
-0.271396;0.655554;0.452847;-0.677834;0.346692;1.03195;0.391186;-0.579413;0.076199;4.405
-0.269225;0.676603;0.0438682;-0.671199;0.336889;1.03279;0.382481;-0.564144;0.0748843;4.41
-0.269225;0.676603;0.0438682;-0.671199;0.336889;1.03279;0.382481;-0.564144;0.0748843;4.415
-0.269225;0.676603;0.0438682;-0.671199;0.336889;1.03279;0.382481;-0.564144;0.0748843;4.42
-0.218256;0.989025;-0.340438;-0.664602;0.327236;1.03359;0.381716;-0.557749;0.0715059;4.425
-0.218256;0.989025;-0.340438;-0.664602;0.327236;1.03359;0.381716;-0.557749;0.0715059;4.43
-0.218256;0.989025;-0.340438;-0.664602;0.327236;1.03359;0.381716;-0.557749;0.0715059;4.435
-0.0228049;0.736325;-0.37984;-0.658118;0.317721;1.03436;0.386891;-0.550267;0.0634832;4.44
-0.0228049;0.736325;-0.37984;-0.658118;0.317721;1.03436;0.386891;-0.550267;0.0634832;4.445
-0.0228049;0.736325;-0.37984;-0.658118;0.317721;1.03436;0.386891;-0.550267;0.0634832;4.45
-0.0228049;0.736325;-0.37984;-0.658118;0.317721;1.03436;0.386891;-0.550267;0.0634832;4.455
0.164015;0.556886;-0.628562;-0.651676;0.308344;1.03508;0.397451;-0.53799;0.0530704;4.46
0.164015;0.556886;-0.628562;-0.651676;0.308344;1.03508;0.397451;-0.53799;0.0530704;4.465
0.164015;0.556886;-0.628562;-0.651676;0.308344;1.03508;0.397451;-0.53799;0.0530704;4.47
0.306588;0.556292;-0.639569;-0.645199;0.2991;1.03561;0.40431;-0.527073;0.0422469;4.475
0.306588;0.556292;-0.639569;-0.645199;0.2991;1.03561;0.40431;-0.527073;0.0422469;4.48
0.306588;0.556292;-0.639569;-0.645199;0.2991;1.03561;0.40431;-0.527073;0.0422469;4.485
0.353427;0.569771;-0.705273;-0.638675;0.289979;1.0359;0.408773;-0.515958;0.031777;4.49
0.353427;0.569771;-0.705273;-0.638675;0.289979;1.0359;0.408773;-0.515958;0.031777;4.495
0.353427;0.569771;-0.705273;-0.638675;0.289979;1.0359;0.408773;-0.515958;0.031777;4.5
0.154656;0.636265;-0.700345;-0.632124;0.280978;1.03599;0.411891;-0.508052;0.020277;4.505
0.154656;0.636265;-0.700345;-0.632124;0.280978;1.03599;0.411891;-0.508052;0.020277;4.51
0.154656;0.636265;-0.700345;-0.632124;0.280978;1.03599;0.411891;-0.508052;0.020277;4.515
0.154656;0.636265;-0.700345;-0.632124;0.280978;1.03599;0.411891;-0.508052;0.020277;4.52
0.132729;0.670362;-0.850072;-0.625508;0.272098;1.03588;0.412508;-0.503991;0.0059518;4.525
0.132729;0.670362;-0.850072;-0.625508;0.272098;1.03588;0.412508;-0.503991;0.0059518;4.53
0.132729;0.670362;-0.850072;-0.625508;0.272098;1.03588;0.412508;-0.503991;0.0059518;4.535
0.168488;0.352764;-0.91445;-0.618823;0.263375;1.03557;0.410541;-0.501036;-0.0111957;4.54
0.168488;0.352764;-0.91445;-0.618823;0.263375;1.03557;0.410541;-0.501036;-0.0111957;4.545
0.168488;0.352764;-0.91445;-0.618823;0.263375;1.03557;0.410541;-0.501036;-0.0111957;4.55
0.168488;0.352764;-0.91445;-0.618823;0.263375;1.03557;0.410541;-0.501036;-0.0111957;4.555
0.287144;0.271725;-0.916069;-0.612055;0.254781;1.03506;0.408806;-0.499665;-0.0303012;4.56
0.287144;0.271725;-0.916069;-0.612055;0.254781;1.03506;0.408806;-0.499665;-0.0303012;4.565
0.287144;0.271725;-0.916069;-0.612055;0.254781;1.03506;0.408806;-0.499665;-0.0303012;4.57
0.273528;0.150936;-0.971193;-0.605143;0.246237;1.03438;0.411226;-0.499871;-0.0456553;4.575
0.273528;0.150936;-0.971193;-0.605143;0.246237;1.03438;0.411226;-0.499871;-0.0456553;4.58
0.273528;0.150936;-0.971193;-0.605143;0.246237;1.03438;0.411226;-0.499871;-0.0456553;4.585
0.405491;0.0611773;-0.708846;-0.598065;0.237725;1.03353;0.414379;-0.498734;-0.0564516;4.59
0.405491;0.0611773;-0.708846;-0.598065;0.237725;1.03353;0.414379;-0.498734;-0.0564516;4.595
0.405491;0.0611773;-0.708846;-0.598065;0.237725;1.03353;0.414379;-0.498734;-0.0564516;4.6
0.405491;0.0611773;-0.708846;-0.598065;0.237725;1.03353;0.414379;-0.498734;-0.0564516;4.605
0.420205;0.154754;-0.494988;-0.590836;0.229272;1.03252;0.420488;-0.499795;-0.064915;4.61
0.420205;0.154754;-0.494988;-0.590836;0.229272;1.03252;0.420488;-0.499795;-0.064915;4.615
0.420205;0.154754;-0.494988;-0.590836;0.229272;1.03252;0.420488;-0.499795;-0.064915;4.62
0.620891;0.0522569;-0.402587;-0.583461;0.22087;1.03137;0.430877;-0.498102;-0.0724528;4.625
0.620891;0.0522569;-0.402587;-0.583461;0.22087;1.03137;0.430877;-0.498102;-0.0724528;4.63
0.620891;0.0522569;-0.402587;-0.583461;0.22087;1.03137;0.430877;-0.498102;-0.0724528;4.635
0.498056;0.02981;-0.465699;-0.575967;0.212525;1.03008;0.442371;-0.494088;-0.0784791;4.64
0.498056;0.02981;-0.465699;-0.575967;0.212525;1.03008;0.442371;-0.494088;-0.0784791;4.645
0.498056;0.02981;-0.465699;-0.575967;0.212525;1.03008;0.442371;-0.494088;-0.0784791;4.65
0.618831;0.050655;-0.289254;-0.568341;0.204226;1.02865;0.453055;-0.489335;-0.083442;4.655
0.618831;0.050655;-0.289254;-0.568341;0.204226;1.02865;0.453055;-0.489335;-0.083442;4.66
0.618831;0.050655;-0.289254;-0.568341;0.204226;1.02865;0.453055;-0.489335;-0.083442;4.665
0.618831;0.050655;-0.289254;-0.568341;0.204226;1.02865;0.453055;-0.489335;-0.083442;4.67
0.730254;0.265009;-0.254648;-0.560528;0.195937;1.02718;0.462273;-0.489371;-0.0877621;4.675
0.730254;0.265009;-0.254648;-0.560528;0.195937;1.02718;0.462273;-0.489371;-0.0877621;4.68
0.730254;0.265009;-0.254648;-0.560528;0.195937;1.02718;0.462273;-0.489371;-0.0877621;4.685
0.717279;0.173601;-0.246711;-0.552566;0.187679;1.02566;0.47716;-0.489484;-0.0912703;4.69
0.717279;0.173601;-0.246711;-0.552566;0.187679;1.02566;0.47716;-0.489484;-0.0912703;4.695
0.717279;0.173601;-0.246711;-0.552566;0.187679;1.02566;0.47716;-0.489484;-0.0912703;4.7
0.717279;0.173601;-0.246711;-0.552566;0.187679;1.02566;0.47716;-0.489484;-0.0912703;4.705
0.832902;-0.225469;-0.399563;-0.544414;0.179432;1.02406;0.499476;-0.488763;-0.0939204;4.71
0.832902;-0.225469;-0.399563;-0.544414;0.179432;1.02406;0.499476;-0.488763;-0.0939204;4.715
0.832902;-0.225469;-0.399563;-0.544414;0.179432;1.02406;0.499476;-0.488763;-0.0939204;4.72
1.6995;-0.501647;-0.017184;-0.535891;0.171107;1.02241;0.510181;-0.498156;-0.0982585;4.725
1.6995;-0.501647;-0.017184;-0.535891;0.171107;1.02241;0.510181;-0.498156;-0.0982585;4.73
1.6995;-0.501647;-0.017184;-0.535891;0.171107;1.02241;0.510181;-0.498156;-0.0982585;4.735
1.6995;-0.501647;-0.017184;-0.535891;0.171107;1.02241;0.510181;-0.498156;-0.0982585;4.74
1.75534;-0.190978;0.112831;-0.526911;0.162661;1.02069;0.522263;-0.517718;-0.101944;4.745
1.75534;-0.190978;0.112831;-0.526911;0.162661;1.02069;0.522263;-0.517718;-0.101944;4.75
1.75534;-0.190978;0.112831;-0.526911;0.162661;1.02069;0.522263;-0.517718;-0.101944;4.755
0.990123;-0.777427;-0.133557;-0.517552;0.15413;1.01889;0.551051;-0.528826;-0.104146;4.76
0.990123;-0.777427;-0.133557;-0.517552;0.15413;1.01889;0.551051;-0.528826;-0.104146;4.765
0.990123;-0.777427;-0.133557;-0.517552;0.15413;1.01889;0.551051;-0.528826;-0.104146;4.77
0.90562;-0.686502;-0.0863159;-0.50787;0.145539;1.01709;0.578975;-0.53366;-0.104535;4.775
0.90562;-0.686502;-0.0863159;-0.50787;0.145539;1.01709;0.578975;-0.53366;-0.104535;4.78
0.90562;-0.686502;-0.0863159;-0.50787;0.145539;1.01709;0.578975;-0.53366;-0.104535;4.785
0.925277;-0.0289337;-0.261825;-0.49791;0.136855;1.01518;0.602425;-0.530965;-0.103744;4.79
0.925277;-0.0289337;-0.261825;-0.49791;0.136855;1.01518;0.602425;-0.530965;-0.103744;4.795
0.925277;-0.0289337;-0.261825;-0.49791;0.136855;1.01518;0.602425;-0.530965;-0.103744;4.8
1.22756;0.125438;0.00359189;-0.487624;0.128118;1.01327;0.623359;-0.523884;-0.100058;4.805
1.22756;0.125438;0.00359189;-0.487624;0.128118;1.01327;0.623359;-0.523884;-0.100058;4.81
1.22756;0.125438;0.00359189;-0.487624;0.128118;1.01327;0.623359;-0.523884;-0.100058;4.815
1.22756;0.125438;0.00359189;-0.487624;0.128118;1.01327;0.623359;-0.523884;-0.100058;4.82
1.50574;0.694733;1.14036;-0.476926;0.11946;1.01178;0.645384;-0.525024;-0.0833436;4.825
1.50574;0.694733;1.14036;-0.476926;0.11946;1.01178;0.645384;-0.525024;-0.0833436;4.83
1.50574;0.694733;1.14036;-0.476926;0.11946;1.01178;0.645384;-0.525024;-0.0833436;4.835
1.42815;-0.032996;1.99172;-0.46567;0.111032;1.01076;0.682306;-0.540797;-0.0438823;4.84
1.42815;-0.032996;1.99172;-0.46567;0.111032;1.01076;0.682306;-0.540797;-0.0438823;4.845
1.42815;-0.032996;1.99172;-0.46567;0.111032;1.01076;0.682306;-0.540797;-0.0438823;4.85
1.42815;-0.032996;1.99172;-0.46567;0.111032;1.01076;0.682306;-0.540797;-0.0438823;4.855
1.76368;-1.19038;1.6946;-0.454003;0.102675;1.01014;0.732597;-0.553626;0.00844038;4.86
1.76368;-1.19038;1.6946;-0.454003;0.102675;1.01014;0.732597;-0.553626;0.00844038;4.865
1.76368;-1.19038;1.6946;-0.454003;0.102675;1.01014;0.732597;-0.553626;0.00844038;4.87
2.02036;-1.77433;4.10802;-0.442277;0.0940443;1.01022;0.717884;-0.587534;0.0496056;4.875
2.02036;-1.77433;4.10802;-0.442277;0.0940443;1.01022;0.717884;-0.587534;0.0496056;4.88
2.02036;-1.77433;4.10802;-0.442277;0.0940443;1.01022;0.717884;-0.587534;0.0496056;4.885
-1.47208;0.38491;1.3604;-0.430603;0.0849414;1.01128;0.738735;-0.582502;0.0726253;4.89
-1.47208;0.38491;1.3604;-0.430603;0.0849414;1.01128;0.738735;-0.582502;0.0726253;4.895
-1.47208;0.38491;1.3604;-0.430603;0.0849414;1.01128;0.738735;-0.582502;0.0726253;4.9
-1.47208;0.38491;1.3604;-0.430603;0.0849414;1.01128;0.738735;-0.582502;0.0726253;4.905
-0.685006;0.293898;0.153621;-0.418858;0.0755711;1.01305;0.730316;-0.568003;0.0818988;4.91
-0.685006;0.293898;0.153621;-0.418858;0.0755711;1.01305;0.730316;-0.568003;0.0818988;4.915
-0.685006;0.293898;0.153621;-0.418858;0.0755711;1.01305;0.730316;-0.568003;0.0818988;4.92
0.39968;0.0796691;0.870647;-0.407052;0.066191;1.01484;0.683115;-0.582247;0.0870642;4.925
0.39968;0.0796691;0.870647;-0.407052;0.066191;1.01484;0.683115;-0.582247;0.0870642;4.93
0.39968;0.0796691;0.870647;-0.407052;0.066191;1.01484;0.683115;-0.582247;0.0870642;4.935
0.481364;-1.76503;0.27499;-0.395095;0.0568958;1.01652;0.66766;-0.582478;0.0845504;4.94
0.481364;-1.76503;0.27499;-0.395095;0.0568958;1.01652;0.66766;-0.582478;0.0845504;4.945
0.481364;-1.76503;0.27499;-0.395095;0.0568958;1.01652;0.66766;-0.582478;0.0845504;4.95
-0.167426;-0.817745;-0.398428;-0.383099;0.0475732;1.01827;0.68525;-0.581882;0.0797392;4.955
-0.167426;-0.817745;-0.398428;-0.383099;0.0475732;1.01827;0.68525;-0.581882;0.0797392;4.96
-0.167426;-0.817745;-0.398428;-0.383099;0.0475732;1.01827;0.68525;-0.581882;0.0797392;4.965
-0.167426;-0.817745;-0.398428;-0.383099;0.0475732;1.01827;0.68525;-0.581882;0.0797392;4.97
-0.509945;1.02842;-0.520271;-0.371377;0.0381775;1.01989;0.708241;-0.585676;0.0771248;4.975
-0.509945;1.02842;-0.520271;-0.371377;0.0381775;1.01989;0.708241;-0.585676;0.0771248;4.98
-0.509945;1.02842;-0.520271;-0.371377;0.0381775;1.01989;0.708241;-0.585676;0.0771248;4.985
-0.821996;0.484875;-0.232901;-0.360017;0.0286265;1.02129;0.704427;-0.581721;0.0741378;4.99
-0.821996;0.484875;-0.232901;-0.360017;0.0286265;1.02129;0.704427;-0.581721;0.0741378;4.995
-0.821996;0.484875;-0.232901;-0.360017;0.0286265;1.02129;0.704427;-0.581721;0.0741378;5
-0.821996;0.484875;-0.232901;-0.360017;0.0286265;1.02129;0.704427;-0.581721;0.0741378;5.005
-0.830851;0.661349;-0.299872;-0.348913;0.0190155;1.02257;0.664733;-0.589836;0.0716164;5.01
-0.830851;0.661349;-0.299872;-0.348913;0.0190155;1.02257;0.664733;-0.589836;0.0716164;5.015
-0.830851;0.661349;-0.299872;-0.348913;0.0190155;1.02257;0.664733;-0.589836;0.0716164;5.02
-0.950668;0.695021;-0.225834;-0.33808;0.00957662;1.0238;0.623653;-0.59905;0.0709555;5.025
-0.950668;0.695021;-0.225834;-0.33808;0.00957662;1.0238;0.623653;-0.59905;0.0709555;5.03
-0.950668;0.695021;-0.225834;-0.33808;0.00957662;1.0238;0.623653;-0.59905;0.0709555;5.035
-1.19238;0.127211;-0.0499583;-0.327524;0.000431635;1.02493;0.597052;-0.60008;0.070811;5.04
-1.19238;0.127211;-0.0499583;-0.327524;0.000431635;1.02493;0.597052;-0.60008;0.070811;5.045
-1.19238;0.127211;-0.0499583;-0.327524;0.000431635;1.02493;0.597052;-0.60008;0.070811;5.05
-1.19238;0.127211;-0.0499583;-0.327524;0.000431635;1.02493;0.597052;-0.60008;0.070811;5.055
-0.92046;-0.166363;0.282677;-0.317252;-0.00854053;1.02598;0.578944;-0.596983;0.0720863;5.06
-0.92046;-0.166363;0.282677;-0.317252;-0.00854053;1.02598;0.578944;-0.596983;0.0720863;5.065
-0.92046;-0.166363;0.282677;-0.317252;-0.00854053;1.02598;0.578944;-0.596983;0.0720863;5.07
-1.16789;0.167576;0.224325;-0.307302;-0.0174816;1.02707;0.560472;-0.598874;0.0781598;5.075
-1.16789;0.167576;0.224325;-0.307302;-0.0174816;1.02707;0.560472;-0.598874;0.0781598;5.08
-1.16789;0.167576;0.224325;-0.307302;-0.0174816;1.02707;0.560472;-0.598874;0.0781598;5.085
-1.37916;0.147615;0.478156;-0.297719;-0.0264637;1.02828;0.542124;-0.586962;0.0861742;5.09
-1.37916;0.147615;0.478156;-0.297719;-0.0264637;1.02828;0.542124;-0.586962;0.0861742;5.095
-1.37916;0.147615;0.478156;-0.297719;-0.0264637;1.02828;0.542124;-0.586962;0.0861742;5.1
-1.16606;0.244425;0.472294;-0.288467;-0.0354238;1.02953;0.525428;-0.569059;0.0930146;5.105
-1.16606;0.244425;0.472294;-0.288467;-0.0354238;1.02953;0.525428;-0.569059;0.0930146;5.11
-1.16606;0.244425;0.472294;-0.288467;-0.0354238;1.02953;0.525428;-0.569059;0.0930146;5.115
-1.16606;0.244425;0.472294;-0.288467;-0.0354238;1.02953;0.525428;-0.569059;0.0930146;5.12
-0.851665;0.493242;0.161103;-0.279452;-0.0442978;1.0307;0.505384;-0.551578;0.0943046;5.125
-0.851665;0.493242;0.161103;-0.279452;-0.0442978;1.0307;0.505384;-0.551578;0.0943046;5.13
-0.851665;0.493242;0.161103;-0.279452;-0.0442978;1.0307;0.505384;-0.551578;0.0943046;5.135
-0.913198;0.532959;-0.187157;-0.270667;-0.0530506;1.03179;0.490497;-0.537573;0.0863827;5.14
-0.913198;0.532959;-0.187157;-0.270667;-0.0530506;1.03179;0.490497;-0.537573;0.0863827;5.145
-0.913198;0.532959;-0.187157;-0.270667;-0.0530506;1.03179;0.490497;-0.537573;0.0863827;5.15
-0.913198;0.532959;-0.187157;-0.270667;-0.0530506;1.03179;0.490497;-0.537573;0.0863827;5.155
-0.937044;0.343374;-0.584927;-0.262105;-0.0617174;1.03279;0.478818;-0.526253;0.0755805;5.16
-0.937044;0.343374;-0.584927;-0.262105;-0.0617174;1.03279;0.478818;-0.526253;0.0755805;5.165
-0.937044;0.343374;-0.584927;-0.262105;-0.0617174;1.03279;0.478818;-0.526253;0.0755805;5.17
-0.800871;0.11667;-0.740004;-0.253656;-0.0703314;1.03361;0.468574;-0.518614;0.0645402;5.175
-0.800871;0.11667;-0.740004;-0.253656;-0.0703314;1.03361;0.468574;-0.518614;0.0645402;5.18
-0.800871;0.11667;-0.740004;-0.253656;-0.0703314;1.03361;0.468574;-0.518614;0.0645402;5.185
-0.609856;0.0589939;-0.768646;-0.245259;-0.0788919;1.03419;0.460009;-0.512165;0.0514788;5.19
-0.609856;0.0589939;-0.768646;-0.245259;-0.0788919;1.03419;0.460009;-0.512165;0.0514788;5.195
-0.609856;0.0589939;-0.768646;-0.245259;-0.0788919;1.03419;0.460009;-0.512165;0.0514788;5.2
-0.609856;0.0589939;-0.768646;-0.245259;-0.0788919;1.03419;0.460009;-0.512165;0.0514788;5.205
-0.42972;-0.0596756;-0.881888;-0.236964;-0.0873976;1.03459;0.451648;-0.508399;0.03569;5.21
-0.42972;-0.0596756;-0.881888;-0.236964;-0.0873976;1.03459;0.451648;-0.508399;0.03569;5.215
-0.42972;-0.0596756;-0.881888;-0.236964;-0.0873976;1.03459;0.451648;-0.508399;0.03569;5.22
-0.494985;0.141308;-0.846615;-0.22882;-0.0958791;1.03481;0.446625;-0.506936;0.0193504;5.225
-0.494985;0.141308;-0.846615;-0.22882;-0.0958791;1.03481;0.446625;-0.506936;0.0193504;5.23
-0.494985;0.141308;-0.846615;-0.22882;-0.0958791;1.03481;0.446625;-0.506936;0.0193504;5.235
-0.667413;0.0884313;-0.820954;-0.220862;-0.10432;1.03484;0.444035;-0.501833;0.00400681;5.24
-0.667413;0.0884313;-0.820954;-0.220862;-0.10432;1.03484;0.444035;-0.501833;0.00400681;5.245
-0.667413;0.0884313;-0.820954;-0.220862;-0.10432;1.03484;0.444035;-0.501833;0.00400681;5.25
-0.667413;0.0884313;-0.820954;-0.220862;-0.10432;1.03484;0.444035;-0.501833;0.00400681;5.255
-0.661789;0.0539308;-0.930502;-0.213048;-0.112737;1.03469;0.442479;-0.498084;-0.00924567;5.26
-0.661789;0.0539308;-0.930502;-0.213048;-0.112737;1.03469;0.442479;-0.498084;-0.00924567;5.265
-0.661789;0.0539308;-0.930502;-0.213048;-0.112737;1.03469;0.442479;-0.498084;-0.00924567;5.27
-0.457009;-0.0747676;-0.770385;-0.205325;-0.12122;1.03439;0.437079;-0.496499;-0.0205458;5.275
-0.457009;-0.0747676;-0.770385;-0.205325;-0.12122;1.03439;0.437079;-0.496499;-0.0205458;5.28
-0.457009;-0.0747676;-0.770385;-0.205325;-0.12122;1.03439;0.437079;-0.496499;-0.0205458;5.285
-0.0992941;-0.162424;-0.742916;-0.197693;-0.129802;1.03392;0.439994;-0.496002;-0.033132;5.29
-0.0992941;-0.162424;-0.742916;-0.197693;-0.129802;1.03392;0.439994;-0.496002;-0.033132;5.295
-0.0992941;-0.162424;-0.742916;-0.197693;-0.129802;1.03392;0.439994;-0.496002;-0.033132;5.3
-0.0992941;-0.162424;-0.742916;-0.197693;-0.129802;1.03392;0.439994;-0.496002;-0.033132;5.305
-0.167043;-0.249343;-0.729762;-0.190171;-0.138465;1.03331;0.439856;-0.498773;-0.0439337;5.31
-0.167043;-0.249343;-0.729762;-0.190171;-0.138465;1.03331;0.439856;-0.498773;-0.0439337;5.315
-0.167043;-0.249343;-0.729762;-0.190171;-0.138465;1.03331;0.439856;-0.498773;-0.0439337;5.32
0.032291;-0.370138;-0.591646;-0.182737;-0.147215;1.03255;0.440667;-0.503098;-0.0547172;5.325
0.032291;-0.370138;-0.591646;-0.182737;-0.147215;1.03255;0.440667;-0.503098;-0.0547172;5.33
0.032291;-0.370138;-0.591646;-0.182737;-0.147215;1.03255;0.440667;-0.503098;-0.0547172;5.335
-0.0790109;-0.390699;-0.573068;-0.175386;-0.156044;1.03165;0.438333;-0.508413;-0.0644006;5.34
-0.0790109;-0.390699;-0.573068;-0.175386;-0.156044;1.03165;0.438333;-0.508413;-0.0644006;5.345
-0.0790109;-0.390699;-0.573068;-0.175386;-0.156044;1.03165;0.438333;-0.508413;-0.0644006;5.35
-0.0790109;-0.390699;-0.573068;-0.175386;-0.156044;1.03165;0.438333;-0.508413;-0.0644006;5.355
-0.342368;-0.282816;-0.580723;-0.168117;-0.164948;1.03061;0.435296;-0.517133;-0.0729186;5.36
-0.342368;-0.282816;-0.580723;-0.168117;-0.164948;1.03061;0.435296;-0.517133;-0.0729186;5.365
-0.342368;-0.282816;-0.580723;-0.168117;-0.164948;1.03061;0.435296;-0.517133;-0.0729186;5.37
-0.155829;-0.392987;-0.470996;-0.160904;-0.173935;1.02946;0.436775;-0.524261;-0.0810891;5.375
-0.155829;-0.392987;-0.470996;-0.160904;-0.173935;1.02946;0.436775;-0.524261;-0.0810891;5.38
-0.155829;-0.392987;-0.470996;-0.160904;-0.173935;1.02946;0.436775;-0.524261;-0.0810891;5.385
-0.0672098;-0.41343;-0.388609;-0.153758;-0.182938;1.02818;0.433678;-0.528291;-0.0882136;5.39
-0.0672098;-0.41343;-0.388609;-0.153758;-0.182938;1.02818;0.433678;-0.528291;-0.0882136;5.395
-0.0672098;-0.41343;-0.388609;-0.153758;-0.182938;1.02818;0.433678;-0.528291;-0.0882136;5.4
-0.190114;-0.499522;-0.403252;-0.146663;-0.192015;1.02678;0.435204;-0.533148;-0.0934058;5.405
-0.190114;-0.499522;-0.403252;-0.146663;-0.192015;1.02678;0.435204;-0.533148;-0.0934058;5.41
-0.190114;-0.499522;-0.403252;-0.146663;-0.192015;1.02678;0.435204;-0.533148;-0.0934058;5.415
-0.190114;-0.499522;-0.403252;-0.146663;-0.192015;1.02678;0.435204;-0.533148;-0.0934058;5.42
0.0383508;-0.782504;-0.447323;-0.139573;-0.201375;1.02532;0.431935;-0.549118;-0.0964168;5.425
0.0383508;-0.782504;-0.447323;-0.139573;-0.201375;1.02532;0.431935;-0.549118;-0.0964168;5.43
0.0383508;-0.782504;-0.447323;-0.139573;-0.201375;1.02532;0.431935;-0.549118;-0.0964168;5.435
0.291177;-1.32791;-0.148842;-0.132489;-0.211101;1.02382;0.428936;-0.572794;-0.0971733;5.44
0.291177;-1.32791;-0.148842;-0.132489;-0.211101;1.02382;0.428936;-0.572794;-0.0971733;5.445
0.291177;-1.32791;-0.148842;-0.132489;-0.211101;1.02382;0.428936;-0.572794;-0.0971733;5.45
0.291177;-1.32791;-0.148842;-0.132489;-0.211101;1.02382;0.428936;-0.572794;-0.0971733;5.455
-0.127015;-1.54633;-0.0146364;-0.125415;-0.221126;1.02223;0.433029;-0.59476;-0.0966754;5.46
-0.127015;-1.54633;-0.0146364;-0.125415;-0.221126;1.02223;0.433029;-0.59476;-0.0966754;5.465
-0.127015;-1.54633;-0.0146364;-0.125415;-0.221126;1.02223;0.433029;-0.59476;-0.0966754;5.47
0.1928;-1.22764;-0.0989243;-0.118302;-0.231428;1.02056;0.436069;-0.615307;-0.0977684;5.475
0.1928;-1.22764;-0.0989243;-0.118302;-0.231428;1.02056;0.436069;-0.615307;-0.0977684;5.48
0.1928;-1.22764;-0.0989243;-0.118302;-0.231428;1.02056;0.436069;-0.615307;-0.0977684;5.485
0.611972;-0.779727;-0.0269402;-0.111107;-0.241991;1.01875;0.443234;-0.630756;-0.102277;5.49
0.611972;-0.779727;-0.0269402;-0.111107;-0.241991;1.01875;0.443234;-0.630756;-0.102277;5.495
0.611972;-0.779727;-0.0269402;-0.111107;-0.241991;1.01875;0.443234;-0.630756;-0.102277;5.5
0.611972;-0.779727;-0.0269402;-0.111107;-0.241991;1.01875;0.443234;-0.630756;-0.102277;5.505
0.485429;-0.679523;-0.0659649;-0.103873;-0.252833;1.01686;0.452609;-0.642589;-0.107209;5.51
0.485429;-0.679523;-0.0659649;-0.103873;-0.252833;1.01686;0.452609;-0.642589;-0.107209;5.515
0.485429;-0.679523;-0.0659649;-0.103873;-0.252833;1.01686;0.452609;-0.642589;-0.107209;5.52
-0.196664;-0.660948;-0.429514;-0.0966688;-0.263989;1.01508;0.456053;-0.661572;-0.104008;5.525
-0.196664;-0.660948;-0.429514;-0.0966688;-0.263989;1.01508;0.456053;-0.661572;-0.104008;5.53
-0.196664;-0.660948;-0.429514;-0.0966688;-0.263989;1.01508;0.456053;-0.661572;-0.104008;5.535
-0.0462252;-1.1492;-0.654651;-0.089553;-0.275476;1.01329;0.456538;-0.698326;-0.0887098;5.54
-0.0462252;-1.1492;-0.654651;-0.089553;-0.275476;1.01329;0.456538;-0.698326;-0.0887098;5.545
-0.0462252;-1.1492;-0.654651;-0.089553;-0.275476;1.01329;0.456538;-0.698326;-0.0887098;5.55
-0.842051;-1.17755;0.895039;-0.0824748;-0.287278;1.01161;0.450622;-0.710114;-0.0762789;5.555
-0.842051;-1.17755;0.895039;-0.0824748;-0.287278;1.01161;0.450622;-0.710114;-0.0762789;5.56
-0.842051;-1.17755;0.895039;-0.0824748;-0.287278;1.01161;0.450622;-0.710114;-0.0762789;5.565
-0.842051;-1.17755;0.895039;-0.0824748;-0.287278;1.01161;0.450622;-0.710114;-0.0762789;5.57
0.337026;-1.24112;1.61188;-0.0753304;-0.299381;1.01051;0.439602;-0.72877;-0.0530228;5.575
0.337026;-1.24112;1.61188;-0.0753304;-0.299381;1.01051;0.439602;-0.72877;-0.0530228;5.58
0.337026;-1.24112;1.61188;-0.0753304;-0.299381;1.01051;0.439602;-0.72877;-0.0530228;5.585
1.00477;-1.37552;1.81099;-0.0681571;-0.311865;1.01018;0.444932;-0.753076;-0.0124766;5.59
1.00477;-1.37552;1.81099;-0.0681571;-0.311865;1.01018;0.444932;-0.753076;-0.0124766;5.595
1.00477;-1.37552;1.81099;-0.0681571;-0.311865;1.01018;0.444932;-0.753076;-0.0124766;5.6
1.00477;-1.37552;1.81099;-0.0681571;-0.311865;1.01018;0.444932;-0.753076;-0.0124766;5.605
1.47558;-1.11388;4.05508;-0.0609107;-0.324647;1.01044;0.500829;-0.719358;0.0334505;5.61
1.47558;-1.11388;4.05508;-0.0609107;-0.324647;1.01044;0.500829;-0.719358;0.0334505;5.615
1.47558;-1.11388;4.05508;-0.0609107;-0.324647;1.01044;0.500829;-0.719358;0.0334505;5.62
0.150482;0.958737;1.48741;-0.0533627;-0.337473;1.0112;0.502096;-0.749871;0.0694725;5.625
0.150482;0.958737;1.48741;-0.0533627;-0.337473;1.0112;0.502096;-0.749871;0.0694725;5.63
0.150482;0.958737;1.48741;-0.0533627;-0.337473;1.0112;0.502096;-0.749871;0.0694725;5.635
0.150482;0.958737;1.48741;-0.0533627;-0.337473;1.0112;0.502096;-0.749871;0.0694725;5.64
-0.882394;0.33448;0.650961;-0.0452354;-0.350306;1.01262;0.500122;-0.770353;0.083417;5.645
-0.882394;0.33448;0.650961;-0.0452354;-0.350306;1.01262;0.500122;-0.770353;0.083417;5.65
-0.882394;0.33448;0.650961;-0.0452354;-0.350306;1.01262;0.500122;-0.770353;0.083417;5.655
0.550022;-0.28945;0.883401;-0.0368122;-0.363187;1.01455;0.504003;-0.760203;0.0818641;5.66
0.550022;-0.28945;0.883401;-0.0368122;-0.363187;1.01455;0.504003;-0.760203;0.0818641;5.665
0.550022;-0.28945;0.883401;-0.0368122;-0.363187;1.01455;0.504003;-0.760203;0.0818641;5.67
0.073934;-0.0223623;-0.237327;-0.0287015;-0.375968;1.01645;0.505836;-0.760749;0.0809804;5.675
0.073934;-0.0223623;-0.237327;-0.0287015;-0.375968;1.01645;0.505836;-0.760749;0.0809804;5.68
0.073934;-0.0223623;-0.237327;-0.0287015;-0.375968;1.01645;0.505836;-0.760749;0.0809804;5.685
0.275594;0.530258;0.314107;-0.0212069;-0.388669;1.01813;0.496723;-0.752387;0.0804356;5.69
0.275594;0.530258;0.314107;-0.0212069;-0.388669;1.01813;0.496723;-0.752387;0.0804356;5.695
0.275594;0.530258;0.314107;-0.0212069;-0.388669;1.01813;0.496723;-0.752387;0.0804356;5.7
-0.864436;0.888165;-0.0984977;-0.0140079;-0.401263;1.0198;0.483108;-0.739736;0.0810572;5.705
-0.864436;0.888165;-0.0984977;-0.0140079;-0.401263;1.0198;0.483108;-0.739736;0.0810572;5.71
-0.864436;0.888165;-0.0984977;-0.0140079;-0.401263;1.0198;0.483108;-0.739736;0.0810572;5.715
-0.864436;0.888165;-0.0984977;-0.0140079;-0.401263;1.0198;0.483108;-0.739736;0.0810572;5.72
-0.657108;0.822137;-0.290711;-0.00677773;-0.413523;1.0214;0.465472;-0.723233;0.0814804;5.725
-0.657108;0.822137;-0.290711;-0.00677773;-0.413523;1.0214;0.465472;-0.723233;0.0814804;5.73
-0.657108;0.822137;-0.290711;-0.00677773;-0.413523;1.0214;0.465472;-0.723233;0.0814804;5.735
-0.28302;0.858177;-0.0670961;0.000611534;-0.425376;1.02289;0.461757;-0.700578;0.0834683;5.74
-0.28302;0.858177;-0.0670961;0.000611534;-0.425376;1.02289;0.461757;-0.700578;0.0834683;5.745
-0.28302;0.858177;-0.0670961;0.000611534;-0.425376;1.02289;0.461757;-0.700578;0.0834683;5.75
-0.28302;0.858177;-0.0670961;0.000611534;-0.425376;1.02289;0.461757;-0.700578;0.0834683;5.755
-0.0127135;1.21695;0.0683446;0.00802326;-0.436898;1.02431;0.46594;-0.676748;0.0861064;5.76
-0.0127135;1.21695;0.0683446;0.00802326;-0.436898;1.02431;0.46594;-0.676748;0.0861064;5.765
-0.0127135;1.21695;0.0683446;0.00802326;-0.436898;1.02431;0.46594;-0.676748;0.0861064;5.77
0.147678;1.2543;0.0903617;0.0153827;-0.448079;1.02568;0.471541;-0.652595;0.0882826;5.775
0.147678;1.2543;0.0903617;0.0153827;-0.448079;1.02568;0.471541;-0.652595;0.0882826;5.78
0.147678;1.2543;0.0903617;0.0153827;-0.448079;1.02568;0.471541;-0.652595;0.0882826;5.785
0.234763;1.1728;0.127655;0.0226361;-0.458883;1.02703;0.472582;-0.634112;0.0900175;5.79
0.234763;1.1728;0.127655;0.0226361;-0.458883;1.02703;0.472582;-0.634112;0.0900175;5.795
0.234763;1.1728;0.127655;0.0226361;-0.458883;1.02703;0.472582;-0.634112;0.0900175;5.8
0.234763;1.1728;0.127655;0.0226361;-0.458883;1.02703;0.472582;-0.634112;0.0900175;5.805
0.129626;0.96;0.138465;0.0298395;-0.469339;1.02832;0.469953;-0.620235;0.089313;5.81
0.129626;0.96;0.138465;0.0298395;-0.469339;1.02832;0.469953;-0.620235;0.089313;5.815
0.129626;0.96;0.138465;0.0298395;-0.469339;1.02832;0.469953;-0.620235;0.089313;5.82
-0.0763123;1.0749;0.119554;0.0370845;-0.479528;1.02954;0.465054;-0.605006;0.0879875;5.825
-0.0763123;1.0749;0.119554;0.0370845;-0.479528;1.02954;0.465054;-0.605006;0.0879875;5.83
-0.0763123;1.0749;0.119554;0.0370845;-0.479528;1.02954;0.465054;-0.605006;0.0879875;5.835
-0.261088;0.941166;-0.0603326;0.0444192;-0.489447;1.0307;0.456583;-0.589791;0.0859526;5.84
-0.261088;0.941166;-0.0603326;0.0444192;-0.489447;1.0307;0.456583;-0.589791;0.0859526;5.845
-0.261088;0.941166;-0.0603326;0.0444192;-0.489447;1.0307;0.456583;-0.589791;0.0859526;5.85
-0.288155;0.653559;-0.11456;0.0517948;-0.499104;1.03178;0.446315;-0.574532;0.082045;5.855
-0.288155;0.653559;-0.11456;0.0517948;-0.499104;1.03178;0.446315;-0.574532;0.082045;5.86
-0.288155;0.653559;-0.11456;0.0517948;-0.499104;1.03178;0.446315;-0.574532;0.082045;5.865
-0.288155;0.653559;-0.11456;0.0517948;-0.499104;1.03178;0.446315;-0.574532;0.082045;5.87
-0.332074;0.73512;-0.3916;0.0591544;-0.508604;1.03272;0.442892;-0.563759;0.076329;5.875
-0.332074;0.73512;-0.3916;0.0591544;-0.508604;1.03272;0.442892;-0.563759;0.076329;5.88
-0.332074;0.73512;-0.3916;0.0591544;-0.508604;1.03272;0.442892;-0.563759;0.076329;5.885
-0.175097;0.784202;-0.557871;0.0664457;-0.517985;1.0335;0.444191;-0.556753;0.0673266;5.89
-0.175097;0.784202;-0.557871;0.0664457;-0.517985;1.0335;0.444191;-0.556753;0.0673266;5.895
-0.175097;0.784202;-0.557871;0.0664457;-0.517985;1.0335;0.444191;-0.556753;0.0673266;5.9
-0.175097;0.784202;-0.557871;0.0664457;-0.517985;1.0335;0.444191;-0.556753;0.0673266;5.905
0.200772;0.58729;-0.550892;0.0737214;-0.52722;1.03415;0.445098;-0.546253;0.0552143;5.91
0.200772;0.58729;-0.550892;0.0737214;-0.52722;1.03415;0.445098;-0.546253;0.0552143;5.915
0.200772;0.58729;-0.550892;0.0737214;-0.52722;1.03415;0.445098;-0.546253;0.0552143;5.92
0.175353;0.358451;-0.758733;0.0810792;-0.53632;1.03463;0.451026;-0.528754;0.043754;5.925
0.175353;0.358451;-0.758733;0.0810792;-0.53632;1.03463;0.451026;-0.528754;0.043754;5.93
0.175353;0.358451;-0.758733;0.0810792;-0.53632;1.03463;0.451026;-0.528754;0.043754;5.935
0.251687;0.505644;-0.878084;0.0885572;-0.545282;1.03491;0.456266;-0.516845;0.032045;5.94
0.251687;0.505644;-0.878084;0.0885572;-0.545282;1.03491;0.456266;-0.516845;0.032045;5.945
0.251687;0.505644;-0.878084;0.0885572;-0.545282;1.03491;0.456266;-0.516845;0.032045;5.95
0.251687;0.505644;-0.878084;0.0885572;-0.545282;1.03491;0.456266;-0.516845;0.032045;5.955
0.281164;0.654747;-0.686112;0.0961129;-0.554122;1.03501;0.456674;-0.511962;0.0174722;5.96
0.281164;0.654747;-0.686112;0.0961129;-0.554122;1.03501;0.456674;-0.511962;0.0174722;5.965
0.281164;0.654747;-0.686112;0.0961129;-0.554122;1.03501;0.456674;-0.511962;0.0174722;5.97
0.118765;0.345025;-0.76833;0.103727;-0.562874;1.03495;0.460614;-0.505843;0.00396878;5.975
0.118765;0.345025;-0.76833;0.103727;-0.562874;1.03495;0.460614;-0.505843;0.00396878;5.98
0.118765;0.345025;-0.76833;0.103727;-0.562874;1.03495;0.460614;-0.505843;0.00396878;5.985
0.180485;0.279566;-0.684363;0.111398;-0.57152;1.03475;0.464878;-0.502963;-0.00685927;5.99
0.180485;0.279566;-0.684363;0.111398;-0.57152;1.03475;0.464878;-0.502963;-0.00685927;5.995
0.180485;0.279566;-0.684363;0.111398;-0.57152;1.03475;0.464878;-0.502963;-0.00685927;6
0.315684;0.235113;-0.630469;0.11914;-0.580072;1.03439;0.46975;-0.502628;-0.0161323;6.005
0.315684;0.235113;-0.630469;0.11914;-0.580072;1.03439;0.46975;-0.502628;-0.0161323;6.01
0.315684;0.235113;-0.630469;0.11914;-0.580072;1.03439;0.46975;-0.502628;-0.0161323;6.015
0.315684;0.235113;-0.630469;0.11914;-0.580072;1.03439;0.46975;-0.502628;-0.0161323;6.02
0.389249;0.0739378;-0.517516;0.126958;-0.588605;1.03389;0.47288;-0.503299;-0.0255129;6.025
0.389249;0.0739378;-0.517516;0.126958;-0.588605;1.03389;0.47288;-0.503299;-0.0255129;6.03
0.389249;0.0739378;-0.517516;0.126958;-0.588605;1.03389;0.47288;-0.503299;-0.0255129;6.035
0.255166;0.0640173;-0.633502;0.134844;-0.597126;1.03325;0.477338;-0.502808;-0.0354195;6.04
0.255166;0.0640173;-0.633502;0.134844;-0.597126;1.03325;0.477338;-0.502808;-0.0354195;6.045
0.255166;0.0640173;-0.633502;0.134844;-0.597126;1.03325;0.477338;-0.502808;-0.0354195;6.05
0.255166;0.0640173;-0.633502;0.134844;-0.597126;1.03325;0.477338;-0.502808;-0.0354195;6.055
0.278219;0.100073;-0.59707;0.142812;-0.605617;1.03247;0.48249;-0.501208;-0.0451875;6.06
0.278219;0.100073;-0.59707;0.142812;-0.605617;1.03247;0.48249;-0.501208;-0.0451875;6.065
0.278219;0.100073;-0.59707;0.142812;-0.605617;1.03247;0.48249;-0.501208;-0.0451875;6.07
0.410106;-0.0123;-0.523552;0.150898;-0.614113;1.03156;0.487256;-0.501543;-0.0548413;6.075
0.410106;-0.0123;-0.523552;0.150898;-0.614113;1.03156;0.487256;-0.501543;-0.0548413;6.08
0.410106;-0.0123;-0.523552;0.150898;-0.614113;1.03156;0.487256;-0.501543;-0.0548413;6.085
0.418391;-0.178498;-0.499438;0.159088;-0.62262;1.03051;0.496678;-0.499962;-0.0633734;6.09
0.418391;-0.178498;-0.499438;0.159088;-0.62262;1.03051;0.496678;-0.499962;-0.0633734;6.095
0.418391;-0.178498;-0.499438;0.159088;-0.62262;1.03051;0.496678;-0.499962;-0.0633734;6.1
0.418391;-0.178498;-0.499438;0.159088;-0.62262;1.03051;0.496678;-0.499962;-0.0633734;6.105
0.606452;-0.111695;-0.50353;0.167388;-0.631132;1.02935;0.507831;-0.50046;-0.0712538;6.11
0.606452;-0.111695;-0.50353;0.167388;-0.631132;1.02935;0.507831;-0.50046;-0.0712538;6.115
0.606452;-0.111695;-0.50353;0.167388;-0.631132;1.02935;0.507831;-0.50046;-0.0712538;6.12
0.744137;0.0399825;-0.434783;0.17586;-0.639668;1.02808;0.516661;-0.504979;-0.0784077;6.125
0.744137;0.0399825;-0.434783;0.17586;-0.639668;1.02808;0.516661;-0.504979;-0.0784077;6.13
0.744137;0.0399825;-0.434783;0.17586;-0.639668;1.02808;0.516661;-0.504979;-0.0784077;6.135
0.808036;-0.161343;-0.311615;0.184481;-0.648213;1.0267;0.526301;-0.507739;-0.0844805;6.14
0.808036;-0.161343;-0.311615;0.184481;-0.648213;1.0267;0.526301;-0.507739;-0.0844805;6.145
0.808036;-0.161343;-0.311615;0.184481;-0.648213;1.0267;0.526301;-0.507739;-0.0844805;6.15
0.839408;-0.349411;-0.361578;0.193268;-0.656783;1.02521;0.539579;-0.50949;-0.0895987;6.155
0.839408;-0.349411;-0.361578;0.193268;-0.656783;1.02521;0.539579;-0.50949;-0.0895987;6.16
0.839408;-0.349411;-0.361578;0.193268;-0.656783;1.02521;0.539579;-0.50949;-0.0895987;6.165
0.839408;-0.349411;-0.361578;0.193268;-0.656783;1.02521;0.539579;-0.50949;-0.0895987;6.17
1.07803;-0.0787111;-0.339163;0.20235;-0.66544;1.02371;0.554442;-0.514785;-0.0941834;6.175
1.07803;-0.0787111;-0.339163;0.20235;-0.66544;1.02371;0.554442;-0.514785;-0.0941834;6.18
1.07803;-0.0787111;-0.339163;0.20235;-0.66544;1.02371;0.554442;-0.514785;-0.0941834;6.185
1.29633;-0.142034;-0.187028;0.211774;-0.674199;1.02225;0.570293;-0.52351;-0.098343;6.19
1.29633;-0.142034;-0.187028;0.211774;-0.674199;1.02225;0.570293;-0.52351;-0.098343;6.195
1.29633;-0.142034;-0.187028;0.211774;-0.674199;1.02225;0.570293;-0.52351;-0.098343;6.2
1.29633;-0.142034;-0.187028;0.211774;-0.674199;1.02225;0.570293;-0.52351;-0.098343;6.205
1.4966;-0.313465;-0.144325;0.221502;-0.683045;1.02075;0.590148;-0.533646;-0.102015;6.21
1.4966;-0.313465;-0.144325;0.221502;-0.683045;1.02075;0.590148;-0.533646;-0.102015;6.215
1.4966;-0.313465;-0.144325;0.221502;-0.683045;1.02075;0.590148;-0.533646;-0.102015;6.22
1.19163;-0.799737;-0.358376;0.231545;-0.691994;1.01912;0.613812;-0.539821;-0.105823;6.225
1.19163;-0.799737;-0.358376;0.231545;-0.691994;1.01912;0.613812;-0.539821;-0.105823;6.23
1.19163;-0.799737;-0.358376;0.231545;-0.691994;1.01912;0.613812;-0.539821;-0.105823;6.235
0.885946;-0.869934;-0.34066;0.24189;-0.701085;1.01727;0.630143;-0.546706;-0.113662;6.24
0.885946;-0.869934;-0.34066;0.24189;-0.701085;1.01727;0.630143;-0.546706;-0.113662;6.245
0.885946;-0.869934;-0.34066;0.24189;-0.701085;1.01727;0.630143;-0.546706;-0.113662;6.25
0.885946;-0.869934;-0.34066;0.24189;-0.701085;1.01727;0.630143;-0.546706;-0.113662;6.255
0.92443;-0.310258;-0.246626;0.25255;-0.710281;1.01528;0.641087;-0.555133;-0.121314;6.26
0.92443;-0.310258;-0.246626;0.25255;-0.710281;1.01528;0.641087;-0.555133;-0.121314;6.265
0.92443;-0.310258;-0.246626;0.25255;-0.710281;1.01528;0.641087;-0.555133;-0.121314;6.27
0.773745;0.119499;-0.425125;0.263586;-0.719489;1.01339;0.659249;-0.5608;-0.120475;6.275
0.773745;0.119499;-0.425125;0.263586;-0.719489;1.01339;0.659249;-0.5608;-0.120475;6.28
0.773745;0.119499;-0.425125;0.263586;-0.719489;1.01339;0.659249;-0.5608;-0.120475;6.285
1.25175;0.117754;-0.161428;0.275037;-0.728661;1.01148;0.679543;-0.562958;-0.112267;6.29
1.25175;0.117754;-0.161428;0.275037;-0.728661;1.01148;0.679543;-0.562958;-0.112267;6.295
1.25175;0.117754;-0.161428;0.275037;-0.728661;1.01148;0.679543;-0.562958;-0.112267;6.3
1.41303;0.687144;0.758868;0.286867;-0.737834;1.00965;0.707691;-0.557505;-0.0972838;6.305
1.41303;0.687144;0.758868;0.286867;-0.737834;1.00965;0.707691;-0.557505;-0.0972838;6.31
1.41303;0.687144;0.758868;0.286867;-0.737834;1.00965;0.707691;-0.557505;-0.0972838;6.315
1.41303;0.687144;0.758868;0.286867;-0.737834;1.00965;0.707691;-0.557505;-0.0972838;6.32
1.50629;-0.292658;1.96908;0.299019;-0.747045;1.00847;0.729911;-0.560177;-0.0732456;6.325
1.50629;-0.292658;1.96908;0.299019;-0.747045;1.00847;0.729911;-0.560177;-0.0732456;6.33
1.50629;-0.292658;1.96908;0.299019;-0.747045;1.00847;0.729911;-0.560177;-0.0732456;6.335
1.90515;-1.52837;2.35541;0.31158;-0.75618;1.00817;0.725059;-0.585245;-0.0314883;6.34
1.90515;-1.52837;2.35541;0.31158;-0.75618;1.00817;0.725059;-0.585245;-0.0314883;6.345
1.90515;-1.52837;2.35541;0.31158;-0.75618;1.00817;0.725059;-0.585245;-0.0314883;6.35
1.90515;-1.52837;2.35541;0.31158;-0.75618;1.00817;0.725059;-0.585245;-0.0314883;6.355
1.08668;-1.59159;4.49959;0.324465;-0.765355;1.00851;0.697248;-0.626464;0.0201666;6.36
1.08668;-1.59159;4.49959;0.324465;-0.765355;1.00851;0.697248;-0.626464;0.0201666;6.365
1.08668;-1.59159;4.49959;0.324465;-0.765355;1.00851;0.697248;-0.626464;0.0201666;6.37
-1.746;0.152004;1.3292;0.337364;-0.774958;1.00941;0.741746;-0.628859;0.0651332;6.375
-1.746;0.152004;1.3292;0.337364;-0.774958;1.00941;0.741746;-0.628859;0.0651332;6.38
-1.746;0.152004;1.3292;0.337364;-0.774958;1.00941;0.741746;-0.628859;0.0651332;6.385
-0.253804;0.558124;0.976664;0.350264;-0.785363;1.01107;0.754244;-0.641305;0.0918814;6.39
-0.253804;0.558124;0.976664;0.350264;-0.785363;1.01107;0.754244;-0.641305;0.0918814;6.395
-0.253804;0.558124;0.976664;0.350264;-0.785363;1.01107;0.754244;-0.641305;0.0918814;6.4
-0.253804;0.558124;0.976664;0.350264;-0.785363;1.01107;0.754244;-0.641305;0.0918814;6.405
0.343593;-0.527349;1.15838;0.363172;-0.796201;1.01331;0.748122;-0.648522;0.106816;6.41
0.343593;-0.527349;1.15838;0.363172;-0.796201;1.01331;0.748122;-0.648522;0.106816;6.415
0.343593;-0.527349;1.15838;0.363172;-0.796201;1.01331;0.748122;-0.648522;0.106816;6.42
-0.41592;-1.10455;0.308404;0.375804;-0.806738;1.01544;0.746117;-0.637729;0.111753;6.425
-0.41592;-1.10455;0.308404;0.375804;-0.806738;1.01544;0.746117;-0.637729;0.111753;6.43
-0.41592;-1.10455;0.308404;0.375804;-0.806738;1.01544;0.746117;-0.637729;0.111753;6.435
-0.657333;-0.0384829;-0.0183022;0.388087;-0.816645;1.01722;0.733736;-0.626909;0.110156;6.44
-0.657333;-0.0384829;-0.0183022;0.388087;-0.816645;1.01722;0.733736;-0.626909;0.110156;6.445
-0.657333;-0.0384829;-0.0183022;0.388087;-0.816645;1.01722;0.733736;-0.626909;0.110156;6.45
-0.828503;1.46995;-0.30665;0.400096;-0.826255;1.01891;0.717852;-0.615363;0.105977;6.455
-0.828503;1.46995;-0.30665;0.400096;-0.826255;1.01891;0.717852;-0.615363;0.105977;6.46
-0.828503;1.46995;-0.30665;0.400096;-0.826255;1.01891;0.717852;-0.615363;0.105977;6.465
-0.828503;1.46995;-0.30665;0.400096;-0.826255;1.01891;0.717852;-0.615363;0.105977;6.47
-1.28736;0.833645;-0.121773;0.411766;-0.835814;1.02055;0.694927;-0.600512;0.101413;6.475
-1.28736;0.833645;-0.121773;0.411766;-0.835814;1.02055;0.694927;-0.600512;0.101413;6.48
-1.28736;0.833645;-0.121773;0.411766;-0.835814;1.02055;0.694927;-0.600512;0.101413;6.485
-1.23697;0.685807;-0.165071;0.423073;-0.84543;1.02215;0.663028;-0.598415;0.101803;6.49
-1.23697;0.685807;-0.165071;0.423073;-0.84543;1.02215;0.663028;-0.598415;0.101803;6.495
-1.23697;0.685807;-0.165071;0.423073;-0.84543;1.02215;0.663028;-0.598415;0.101803;6.5
-1.23697;0.685807;-0.165071;0.423073;-0.84543;1.02215;0.663028;-0.598415;0.101803;6.505
-1.26163;0.459461;-0.140295;0.434047;-0.854984;1.02369;0.627275;-0.605915;0.101474;6.51
-1.26163;0.459461;-0.140295;0.434047;-0.854984;1.02369;0.627275;-0.605915;0.101474;6.515
-1.26163;0.459461;-0.140295;0.434047;-0.854984;1.02369;0.627275;-0.605915;0.101474;6.52
-1.01387;-0.00358359;-0.00340624;0.444687;-0.864395;1.02518;0.595818;-0.609401;0.100187;6.525
-1.01387;-0.00358359;-0.00340624;0.444687;-0.864395;1.02518;0.595818;-0.609401;0.100187;6.53
-1.01387;-0.00358359;-0.00340624;0.444687;-0.864395;1.02518;0.595818;-0.609401;0.100187;6.535
-1.31359;0.113607;-0.159837;0.454979;-0.873612;1.02663;0.573015;-0.609494;0.101467;6.54
-1.31359;0.113607;-0.159837;0.454979;-0.873612;1.02663;0.573015;-0.609494;0.101467;6.545
-1.31359;0.113607;-0.159837;0.454979;-0.873612;1.02663;0.573015;-0.609494;0.101467;6.55
-1.31359;0.113607;-0.159837;0.454979;-0.873612;1.02663;0.573015;-0.609494;0.101467;6.555
-1.48246;0.124487;0.216222;0.464917;-0.882697;1.02802;0.55373;-0.5976;0.103849;6.56
-1.48246;0.124487;0.216222;0.464917;-0.882697;1.02802;0.55373;-0.5976;0.103849;6.565
-1.48246;0.124487;0.216222;0.464917;-0.882697;1.02802;0.55373;-0.5976;0.103849;6.57
-1.16967;0.345612;0.48247;0.474511;-0.891741;1.02935;0.536986;-0.577428;0.102663;6.575
-1.16967;0.345612;0.48247;0.474511;-0.891741;1.02935;0.536986;-0.577428;0.102663;6.58
-1.16967;0.345612;0.48247;0.474511;-0.891741;1.02935;0.536986;-0.577428;0.102663;6.585
-1.15144;0.667163;0.144129;0.483705;-0.9008;1.03062;0.519842;-0.557201;0.0999703;6.59
-1.15144;0.667163;0.144129;0.483705;-0.9008;1.03062;0.519842;-0.557201;0.0999703;6.595
-1.15144;0.667163;0.144129;0.483705;-0.9008;1.03062;0.519842;-0.557201;0.0999703;6.6
-0.923746;0.678843;-0.344129;0.49256;-0.909822;1.03183;0.503915;-0.541688;0.0958663;6.605
-0.923746;0.678843;-0.344129;0.49256;-0.909822;1.03183;0.503915;-0.541688;0.0958663;6.61
-0.923746;0.678843;-0.344129;0.49256;-0.909822;1.03183;0.503915;-0.541688;0.0958663;6.615
-0.923746;0.678843;-0.344129;0.49256;-0.909822;1.03183;0.503915;-0.541688;0.0958663;6.62
-0.859516;0.434161;-0.696466;0.501267;-0.918728;1.03284;0.493253;-0.530525;0.0877704;6.625
-0.859516;0.434161;-0.696466;0.501267;-0.918728;1.03284;0.493253;-0.530525;0.0877704;6.63
-0.859516;0.434161;-0.696466;0.501267;-0.918728;1.03284;0.493253;-0.530525;0.0877704;6.635
-0.723192;0.179721;-0.876259;0.509907;-0.927462;1.03366;0.485716;-0.524947;0.0720951;6.64
-0.723192;0.179721;-0.876259;0.509907;-0.927462;1.03366;0.485716;-0.524947;0.0720951;6.645
-0.723192;0.179721;-0.876259;0.509907;-0.927462;1.03366;0.485716;-0.524947;0.0720951;6.65
-0.723192;0.179721;-0.876259;0.509907;-0.927462;1.03366;0.485716;-0.524947;0.0720951;6.655
-0.622366;0.0978521;-0.968291;0.518411;-0.936083;1.03431;0.476202;-0.521884;0.0517763;6.66
-0.622366;0.0978521;-0.968291;0.518411;-0.936083;1.03431;0.476202;-0.521884;0.0517763;6.665
-0.622366;0.0978521;-0.968291;0.518411;-0.936083;1.03431;0.476202;-0.521884;0.0517763;6.67
-0.681815;0.151985;-1.01887;0.526752;-0.94468;1.03473;0.465357;-0.518313;0.0317192;6.675
-0.681815;0.151985;-1.01887;0.526752;-0.94468;1.03473;0.465357;-0.518313;0.0317192;6.68
-0.681815;0.151985;-1.01887;0.526752;-0.94468;1.03473;0.465357;-0.518313;0.0317192;6.685
-0.681815;0.151985;-1.01887;0.526752;-0.94468;1.03473;0.465357;-0.518313;0.0317192;6.69
-0.580277;0.0972756;-1.0173;0.534913;-0.953266;1.03491;0.453897;-0.514163;0.013812;6.695
-0.580277;0.0972756;-1.0173;0.534913;-0.953266;1.03491;0.453897;-0.514163;0.013812;6.7
-0.580277;0.0972756;-1.0173;0.534913;-0.953266;1.03491;0.453897;-0.514163;0.013812;6.705
-0.663582;0.0223549;-0.980354;0.542927;-0.961824;1.03487;0.444521;-0.511011;-0.00275752;6.71
-0.663582;0.0223549;-0.980354;0.542927;-0.961824;1.03487;0.444521;-0.511011;-0.00275752;6.715
-0.663582;0.0223549;-0.980354;0.542927;-0.961824;1.03487;0.444521;-0.511011;-0.00275752;6.72
-0.736401;0.0448401;-0.993701;0.55083;-0.9704;1.03462;0.440093;-0.508317;-0.0179588;6.725
-0.736401;0.0448401;-0.993701;0.55083;-0.9704;1.03462;0.440093;-0.508317;-0.0179588;6.73
-0.736401;0.0448401;-0.993701;0.55083;-0.9704;1.03462;0.440093;-0.508317;-0.0179588;6.735
-0.402391;-0.208623;-0.948045;0.558613;-0.978998;1.03414;0.43537;-0.505703;-0.0322816;6.74
-0.402391;-0.208623;-0.948045;0.558613;-0.978998;1.03414;0.43537;-0.505703;-0.0322816;6.745
-0.402391;-0.208623;-0.948045;0.558613;-0.978998;1.03414;0.43537;-0.505703;-0.0322816;6.75
-0.107314;-0.0948175;-0.913742;0.566275;-0.987621;1.03346;0.440202;-0.504002;-0.0472136;6.755
-0.107314;-0.0948175;-0.913742;0.566275;-0.987621;1.03346;0.440202;-0.504002;-0.0472136;6.76
-0.107314;-0.0948175;-0.913742;0.566275;-0.987621;1.03346;0.440202;-0.504002;-0.0472136;6.765
-0.107314;-0.0948175;-0.913742;0.566275;-0.987621;1.03346;0.440202;-0.504002;-0.0472136;6.77
-0.332824;-0.135494;-0.760576;0.573857;-0.996315;1.03263;0.440863;-0.503862;-0.0591096;6.775
-0.332824;-0.135494;-0.760576;0.573857;-0.996315;1.03263;0.440863;-0.503862;-0.0591096;6.78
-0.332824;-0.135494;-0.760576;0.573857;-0.996315;1.03263;0.440863;-0.503862;-0.0591096;6.785
0.117356;-0.212446;-0.374;0.581375;-1.0051;1.03165;0.436724;-0.504328;-0.0686539;6.79
0.117356;-0.212446;-0.374;0.581375;-1.0051;1.03165;0.436724;-0.504328;-0.0686539;6.795
0.117356;-0.212446;-0.374;0.581375;-1.0051;1.03165;0.436724;-0.504328;-0.0686539;6.8
0.117356;-0.212446;-0.374;0.581375;-1.0051;1.03165;0.436724;-0.504328;-0.0686539;6.805
-0.18094;-0.145566;-0.475908;0.588802;-1.01395;1.03052;0.434855;-0.508433;-0.0740089;6.81
-0.18094;-0.145566;-0.475908;0.588802;-1.01395;1.03052;0.434855;-0.508433;-0.0740089;6.815
-0.18094;-0.145566;-0.475908;0.588802;-1.01395;1.03052;0.434855;-0.508433;-0.0740089;6.82
-0.446815;-0.262397;-0.426529;0.596128;-1.02285;1.02932;0.438975;-0.511886;-0.0792009;6.825
-0.446815;-0.262397;-0.426529;0.596128;-1.02285;1.02932;0.438975;-0.511886;-0.0792009;6.83
-0.446815;-0.262397;-0.426529;0.596128;-1.02285;1.02932;0.438975;-0.511886;-0.0792009;6.835
-0.429896;-0.188468;-0.367342;0.603322;-1.03175;1.02804;0.438385;-0.515214;-0.0853394;6.84
-0.429896;-0.188468;-0.367342;0.603322;-1.03175;1.02804;0.438385;-0.515214;-0.0853394;6.845
-0.429896;-0.188468;-0.367342;0.603322;-1.03175;1.02804;0.438385;-0.515214;-0.0853394;6.85
-0.429896;-0.188468;-0.367342;0.603322;-1.03175;1.02804;0.438385;-0.515214;-0.0853394;6.855
-0.224701;-0.276277;-0.293998;0.61044;-1.04067;1.02669;0.438439;-0.518101;-0.0912266;6.86
-0.224701;-0.276277;-0.293998;0.61044;-1.04067;1.02669;0.438439;-0.518101;-0.0912266;6.865
-0.224701;-0.276277;-0.293998;0.61044;-1.04067;1.02669;0.438439;-0.518101;-0.0912266;6.87
0.11332;-0.530063;-0.377315;0.617593;-1.04979;1.02532;0.434745;-0.530385;-0.0939923;6.875
0.11332;-0.530063;-0.377315;0.617593;-1.04979;1.02532;0.434745;-0.530385;-0.0939923;6.88
0.11332;-0.530063;-0.377315;0.617593;-1.04979;1.02532;0.434745;-0.530385;-0.0939923;6.885
0.142146;-0.774804;-0.162625;0.624805;-1.05916;1.0239;0.428415;-0.555794;-0.0924796;6.89
0.142146;-0.774804;-0.162625;0.624805;-1.05916;1.0239;0.428415;-0.555794;-0.0924796;6.895
0.142146;-0.774804;-0.162625;0.624805;-1.05916;1.0239;0.428415;-0.555794;-0.0924796;6.9
0.0215152;-1.4196;0.00785048;0.632036;-1.06875;1.02244;0.428974;-0.585314;-0.0884608;6.905
0.0215152;-1.4196;0.00785048;0.632036;-1.06875;1.02244;0.428974;-0.585314;-0.0884608;6.91
0.0215152;-1.4196;0.00785048;0.632036;-1.06875;1.02244;0.428974;-0.585314;-0.0884608;6.915
0.0215152;-1.4196;0.00785048;0.632036;-1.06875;1.02244;0.428974;-0.585314;-0.0884608;6.92
0.0290618;-1.81773;0.337284;0.639296;-1.0786;1.02101;0.437333;-0.596954;-0.0876498;6.925
0.0290618;-1.81773;0.337284;0.639296;-1.0786;1.02101;0.437333;-0.596954;-0.0876498;6.93
0.0290618;-1.81773;0.337284;0.639296;-1.0786;1.02101;0.437333;-0.596954;-0.0876498;6.935
0.167544;-0.792913;0.0420086;0.646616;-1.08874;1.01965;0.448194;-0.603641;-0.0877928;6.94
0.167544;-0.792913;0.0420086;0.646616;-1.08874;1.01965;0.448194;-0.603641;-0.0877928;6.945
0.167544;-0.792913;0.0420086;0.646616;-1.08874;1.01965;0.448194;-0.603641;-0.0877928;6.95
0.167544;-0.792913;0.0420086;0.646616;-1.08874;1.01965;0.448194;-0.603641;-0.0877928;6.955
0.488083;-0.35945;0.170796;0.65397;-1.09915;1.01831;0.458695;-0.612275;-0.0872706;6.96
0.488083;-0.35945;0.170796;0.65397;-1.09915;1.01831;0.458695;-0.612275;-0.0872706;6.965
0.488083;-0.35945;0.170796;0.65397;-1.09915;1.01831;0.458695;-0.612275;-0.0872706;6.97
0.23899;-0.21163;-0.0787246;0.661275;-1.10979;1.01691;0.455506;-0.632038;-0.0849922;6.975
0.23899;-0.21163;-0.0787246;0.661275;-1.10979;1.01691;0.455506;-0.632038;-0.0849922;6.98
0.23899;-0.21163;-0.0787246;0.661275;-1.10979;1.01691;0.455506;-0.632038;-0.0849922;6.985
-0.427063;-0.506876;-0.452096;0.668504;-1.12062;1.01531;0.443253;-0.661887;-0.0824534;6.99
-0.427063;-0.506876;-0.452096;0.668504;-1.12062;1.01531;0.443253;-0.661887;-0.0824534;6.995
-0.427063;-0.506876;-0.452096;0.668504;-1.12062;1.01531;0.443253;-0.661887;-0.0824534;7
-0.427063;-0.506876;-0.452096;0.668504;-1.12062;1.01531;0.443253;-0.661887;-0.0824534;7.005
-0.461224;-1.28445;-0.193102;0.675676;-1.13169;1.01365;0.430998;-0.682645;-0.0797812;7.01
-0.461224;-1.28445;-0.193102;0.675676;-1.13169;1.01365;0.430998;-0.682645;-0.0797812;7.015
-0.461224;-1.28445;-0.193102;0.675676;-1.13169;1.01365;0.430998;-0.682645;-0.0797812;7.02
-1.0014;-1.7571;0.841155;0.682781;-1.14312;1.01231;0.421341;-0.698874;-0.0737958;7.025
-1.0014;-1.7571;0.841155;0.682781;-1.14312;1.01231;0.421341;-0.698874;-0.0737958;7.03
-1.0014;-1.7571;0.841155;0.682781;-1.14312;1.01231;0.421341;-0.698874;-0.0737958;7.035
0.185096;-0.931058;0.881052;0.689708;-1.155;1.01131;0.425779;-0.726312;-0.0514295;7.04
0.185096;-0.931058;0.881052;0.689708;-1.155;1.01131;0.425779;-0.726312;-0.0514295;7.045
0.185096;-0.931058;0.881052;0.689708;-1.155;1.01131;0.425779;-0.726312;-0.0514295;7.05
0.620545;-1.5794;0.715409;0.696568;-1.16724;1.01063;0.431912;-0.761068;-0.0173087;7.055
0.620545;-1.5794;0.715409;0.696568;-1.16724;1.01063;0.431912;-0.761068;-0.0173087;7.06
0.620545;-1.5794;0.715409;0.696568;-1.16724;1.01063;0.431912;-0.761068;-0.0173087;7.065
0.620545;-1.5794;0.715409;0.696568;-1.16724;1.01063;0.431912;-0.761068;-0.0173087;7.07
1.18434;-1.29664;2.90189;0.703692;-1.17972;1.01061;0.461923;-0.758763;0.014483;7.075
1.18434;-1.29664;2.90189;0.703692;-1.17972;1.01061;0.461923;-0.758763;0.014483;7.08
1.18434;-1.29664;2.90189;0.703692;-1.17972;1.01061;0.461923;-0.758763;0.014483;7.085
0.79013;-0.42814;3.33585;0.711323;-1.19251;1.01154;0.490239;-0.740596;0.0483775;7.09
0.79013;-0.42814;3.33585;0.711323;-1.19251;1.01154;0.490239;-0.740596;0.0483775;7.095
0.79013;-0.42814;3.33585;0.711323;-1.19251;1.01154;0.490239;-0.740596;0.0483775;7.1
0.79013;-0.42814;3.33585;0.711323;-1.19251;1.01154;0.490239;-0.740596;0.0483775;7.105
0.740499;0.815083;1.2137;0.719216;-1.20555;1.01314;0.481746;-0.747809;0.0803021;7.11
0.740499;0.815083;1.2137;0.719216;-1.20555;1.01314;0.481746;-0.747809;0.0803021;7.115
0.740499;0.815083;1.2137;0.719216;-1.20555;1.01314;0.481746;-0.747809;0.0803021;7.12
-0.188799;0.290436;0.267797;0.726972;-1.21852;1.01479;0.484328;-0.745648;0.0990222;7.125
-0.188799;0.290436;0.267797;0.726972;-1.21852;1.01479;0.484328;-0.745648;0.0990222;7.13
-0.188799;0.290436;0.267797;0.726972;-1.21852;1.01479;0.484328;-0.745648;0.0990222;7.135
-0.51076;-0.550114;-0.205676;0.734409;-1.23131;1.01635;0.494006;-0.74632;0.0964697;7.14
-0.51076;-0.550114;-0.205676;0.734409;-1.23131;1.01635;0.494006;-0.74632;0.0964697;7.145
-0.51076;-0.550114;-0.205676;0.734409;-1.23131;1.01635;0.494006;-0.74632;0.0964697;7.15
-0.51076;-0.550114;-0.205676;0.734409;-1.23131;1.01635;0.494006;-0.74632;0.0964697;7.155
1.00731;-0.403484;-0.297108;0.741723;-1.24402;1.01798;0.489977;-0.762947;0.0822796;7.16
1.00731;-0.403484;-0.297108;0.741723;-1.24402;1.01798;0.489977;-0.762947;0.0822796;7.165
1.00731;-0.403484;-0.297108;0.741723;-1.24402;1.01798;0.489977;-0.762947;0.0822796;7.17
0.219573;0.617126;-0.35599;0.749089;-1.25658;1.0196;0.487098;-0.775894;0.0729581;7.175
0.219573;0.617126;-0.35599;0.749089;-1.25658;1.0196;0.487098;-0.775894;0.0729581;7.18
0.219573;0.617126;-0.35599;0.749089;-1.25658;1.0196;0.487098;-0.775894;0.0729581;7.185
-0.630404;0.628832;-0.259318;0.756628;-1.26905;1.02121;0.477754;-0.763808;0.0717819;7.19
-0.630404;0.628832;-0.259318;0.756628;-1.26905;1.02121;0.477754;-0.763808;0.0717819;7.195
-0.630404;0.628832;-0.259318;0.756628;-1.26905;1.02121;0.477754;-0.763808;0.0717819;7.2
-0.800732;0.671543;-0.2297;0.764219;-1.28138;1.02282;0.462772;-0.738619;0.0724357;7.205
-0.800732;0.671543;-0.2297;0.764219;-1.28138;1.02282;0.462772;-0.738619;0.0724357;7.21
-0.800732;0.671543;-0.2297;0.764219;-1.28138;1.02282;0.462772;-0.738619;0.0724357;7.215
-0.800732;0.671543;-0.2297;0.764219;-1.28138;1.02282;0.462772;-0.738619;0.0724357;7.22
-0.506148;0.782079;-0.144208;0.77166;-1.29339;1.02432;0.457445;-0.707831;0.0737363;7.225
-0.506148;0.782079;-0.144208;0.77166;-1.29339;1.02432;0.457445;-0.707831;0.0737363;7.23
-0.506148;0.782079;-0.144208;0.77166;-1.29339;1.02432;0.457445;-0.707831;0.0737363;7.235
-0.0513741;1.06571;-0.00718648;0.778809;-1.30499;1.02562;0.460972;-0.683102;0.0731845;7.24
-0.0513741;1.06571;-0.00718648;0.778809;-1.30499;1.02562;0.460972;-0.683102;0.0731845;7.245
-0.0513741;1.06571;-0.00718648;0.778809;-1.30499;1.02562;0.460972;-0.683102;0.0731845;7.25
-0.0513741;1.06571;-0.00718648;0.778809;-1.30499;1.02562;0.460972;-0.683102;0.0731845;7.255
0.166295;1.29908;0.0441402;0.785803;-1.31625;1.02679;0.470064;-0.65703;0.0721248;7.26
0.166295;1.29908;0.0441402;0.785803;-1.31625;1.02679;0.470064;-0.65703;0.0721248;7.265
0.166295;1.29908;0.0441402;0.785803;-1.31625;1.02679;0.470064;-0.65703;0.0721248;7.27
0.207254;1.19522;0.286849;0.792868;-1.32719;1.02794;0.475998;-0.63801;0.0735627;7.275
0.207254;1.19522;0.286849;0.792868;-1.32719;1.02794;0.475998;-0.63801;0.0735627;7.28
0.207254;1.19522;0.286849;0.792868;-1.32719;1.02794;0.475998;-0.63801;0.0735627;7.285
0.0642762;0.934892;0.291754;0.800112;-1.33779;1.02914;0.469606;-0.622483;0.07955;7.29
0.0642762;0.934892;0.291754;0.800112;-1.33779;1.02914;0.469606;-0.622483;0.07955;7.295
0.0642762;0.934892;0.291754;0.800112;-1.33779;1.02914;0.469606;-0.622483;0.07955;7.3
0.0642762;0.934892;0.291754;0.800112;-1.33779;1.02914;0.469606;-0.622483;0.07955;7.305
0.00438162;1.17008;0.499997;0.807437;-1.34806;1.03031;0.45662;-0.608454;0.0887409;7.31
0.00438162;1.17008;0.499997;0.807437;-1.34806;1.03031;0.45662;-0.608454;0.0887409;7.315
0.00438162;1.17008;0.499997;0.807437;-1.34806;1.03031;0.45662;-0.608454;0.0887409;7.32
-0.421192;1.14208;0.398517;0.814757;-1.35809;1.03143;0.449616;-0.594661;0.0921919;7.325
-0.421192;1.14208;0.398517;0.814757;-1.35809;1.03143;0.449616;-0.594661;0.0921919;7.33
-0.421192;1.14208;0.398517;0.814757;-1.35809;1.03143;0.449616;-0.594661;0.0921919;7.335
-0.497658;0.875457;-0.201639;0.822038;-1.36789;1.03249;0.44547;-0.577197;0.0887335;7.34
-0.497658;0.875457;-0.201639;0.822038;-1.36789;1.03249;0.44547;-0.577197;0.0887335;7.345
-0.497658;0.875457;-0.201639;0.822038;-1.36789;1.03249;0.44547;-0.577197;0.0887335;7.35
-0.300858;0.920722;-0.442067;0.829309;-1.37747;1.0335;0.439019;-0.563797;0.0814938;7.355
-0.300858;0.920722;-0.442067;0.829309;-1.37747;1.0335;0.439019;-0.563797;0.0814938;7.36
-0.300858;0.920722;-0.442067;0.829309;-1.37747;1.0335;0.439019;-0.563797;0.0814938;7.365
-0.300858;0.920722;-0.442067;0.829309;-1.37747;1.0335;0.439019;-0.563797;0.0814938;7.37
-0.0624639;0.748937;-0.557333;0.836573;-1.3869;1.03433;0.435528;-0.549715;0.0703493;7.375
-0.0624639;0.748937;-0.557333;0.836573;-1.3869;1.03433;0.435528;-0.549715;0.0703493;7.38
-0.0624639;0.748937;-0.557333;0.836573;-1.3869;1.03433;0.435528;-0.549715;0.0703493;7.385
0.117547;0.500967;-0.870134;0.843812;-1.39621;1.03498;0.441615;-0.53503;0.0555739;7.39
0.117547;0.500967;-0.870134;0.843812;-1.39621;1.03498;0.441615;-0.53503;0.0555739;7.395
0.117547;0.500967;-0.870134;0.843812;-1.39621;1.03498;0.441615;-0.53503;0.0555739;7.4
0.117547;0.500967;-0.870134;0.843812;-1.39621;1.03498;0.441615;-0.53503;0.0555739;7.405
0.319771;0.585454;-0.874499;0.851044;-1.40539;1.03546;0.449033;-0.526469;0.0389269;7.41
0.319771;0.585454;-0.874499;0.851044;-1.40539;1.03546;0.449033;-0.526469;0.0389269;7.415
0.319771;0.585454;-0.874499;0.851044;-1.40539;1.03546;0.449033;-0.526469;0.0389269;7.42
0.339177;0.555924;-0.817136;0.858329;-1.4144;1.03576;0.454962;-0.516563;0.0242523;7.425
0.339177;0.555924;-0.817136;0.858329;-1.4144;1.03576;0.454962;-0.516563;0.0242523;7.43
0.339177;0.555924;-0.817136;0.858329;-1.4144;1.03576;0.454962;-0.516563;0.0242523;7.435
0.259477;0.790852;-0.894493;0.865682;-1.42323;1.03585;0.456429;-0.509605;0.0109984;7.44
0.259477;0.790852;-0.894493;0.865682;-1.42323;1.03585;0.456429;-0.509605;0.0109984;7.445
0.259477;0.790852;-0.894493;0.865682;-1.42323;1.03585;0.456429;-0.509605;0.0109984;7.45
0.259477;0.790852;-0.894493;0.865682;-1.42323;1.03585;0.456429;-0.509605;0.0109984;7.455
0.126221;0.667397;-0.880647;0.873083;-1.43189;1.03576;0.454059;-0.503959;-0.00211524;7.46
0.126221;0.667397;-0.880647;0.873083;-1.43189;1.03576;0.454059;-0.503959;-0.00211524;7.465
0.126221;0.667397;-0.880647;0.873083;-1.43189;1.03576;0.454059;-0.503959;-0.00211524;7.47
0.031252;0.265271;-0.7544;0.880558;-1.44046;1.03549;0.455546;-0.493592;-0.0151083;7.475
0.031252;0.265271;-0.7544;0.880558;-1.44046;1.03549;0.455546;-0.493592;-0.0151083;7.48
0.031252;0.265271;-0.7544;0.880558;-1.44046;1.03549;0.455546;-0.493592;-0.0151083;7.485
0.225268;0.371832;-0.737681;0.888123;-1.44891;1.03506;0.456262;-0.490975;-0.0276453;7.49
0.225268;0.371832;-0.737681;0.888123;-1.44891;1.03506;0.456262;-0.490975;-0.0276453;7.495
0.225268;0.371832;-0.737681;0.888123;-1.44891;1.03506;0.456262;-0.490975;-0.0276453;7.5
0.207405;0.287666;-0.721845;0.89578;-1.45725;1.03447;0.458462;-0.488619;-0.0383134;7.505
0.207405;0.287666;-0.721845;0.89578;-1.45725;1.03447;0.458462;-0.488619;-0.0383134;7.51
0.207405;0.287666;-0.721845;0.89578;-1.45725;1.03447;0.458462;-0.488619;-0.0383134;7.515
0.207405;0.287666;-0.721845;0.89578;-1.45725;1.03447;0.458462;-0.488619;-0.0383134;7.52
0.189588;0.130911;-0.564202;0.90353;-1.46556;1.03374;0.459796;-0.486175;-0.0476795;7.525
0.189588;0.130911;-0.564202;0.90353;-1.46556;1.03374;0.459796;-0.486175;-0.0476795;7.53
0.189588;0.130911;-0.564202;0.90353;-1.46556;1.03374;0.459796;-0.486175;-0.0476795;7.535
0.267536;0.175282;-0.570124;0.91136;-1.47386;1.03288;0.465234;-0.484918;-0.0566886;7.54
0.267536;0.175282;-0.570124;0.91136;-1.47386;1.03288;0.465234;-0.484918;-0.0566886;7.545
0.267536;0.175282;-0.570124;0.91136;-1.47386;1.03288;0.465234;-0.484918;-0.0566886;7.55
0.267536;0.175282;-0.570124;0.91136;-1.47386;1.03288;0.465234;-0.484918;-0.0566886;7.555
0.340671;-0.0247426;-0.553225;0.919276;-1.48213;1.03188;0.47197;-0.48474;-0.0652293;7.56
0.340671;-0.0247426;-0.553225;0.919276;-1.48213;1.03188;0.47197;-0.48474;-0.0652293;7.565
0.340671;-0.0247426;-0.553225;0.919276;-1.48213;1.03188;0.47197;-0.48474;-0.0652293;7.57
0.528244;-0.0869954;-0.471452;0.927299;-1.49036;1.03076;0.478466;-0.48563;-0.0733222;7.575
0.528244;-0.0869954;-0.471452;0.927299;-1.49036;1.03076;0.478466;-0.48563;-0.0733222;7.58
0.528244;-0.0869954;-0.471452;0.927299;-1.49036;1.03076;0.478466;-0.48563;-0.0733222;7.585
0.58629;0.0706091;-0.426189;0.935388;-1.49856;1.02952;0.48585;-0.485511;-0.0799193;7.59
0.58629;0.0706091;-0.426189;0.935388;-1.49856;1.02952;0.48585;-0.485511;-0.0799193;7.595
0.58629;0.0706091;-0.426189;0.935388;-1.49856;1.02952;0.48585;-0.485511;-0.0799193;7.6
0.58629;0.0706091;-0.426189;0.935388;-1.49856;1.02952;0.48585;-0.485511;-0.0799193;7.605
0.572919;0.197045;-0.420914;0.943574;-1.50672;1.02814;0.494714;-0.485146;-0.0859304;7.61
0.572919;0.197045;-0.420914;0.943574;-1.50672;1.02814;0.494714;-0.485146;-0.0859304;7.615
0.572919;0.197045;-0.420914;0.943574;-1.50672;1.02814;0.494714;-0.485146;-0.0859304;7.62
0.722204;-0.0457987;-0.454324;0.951999;-1.51488;1.02665;0.51065;-0.482297;-0.0922261;7.625
0.722204;-0.0457987;-0.454324;0.951999;-1.51488;1.02665;0.51065;-0.482297;-0.0922261;7.63
0.722204;-0.0457987;-0.454324;0.951999;-1.51488;1.02665;0.51065;-0.482297;-0.0922261;7.635
1.14879;-0.11581;-0.465426;0.96068;-1.52298;1.02503;0.531884;-0.482383;-0.0992089;7.64
1.14879;-0.11581;-0.465426;0.96068;-1.52298;1.02503;0.531884;-0.482383;-0.0992089;7.645
1.14879;-0.11581;-0.465426;0.96068;-1.52298;1.02503;0.531884;-0.482383;-0.0992089;7.65
1.34144;-0.300835;-0.505202;0.969607;-1.53108;1.02326;0.556148;-0.48033;-0.107385;7.655
1.34144;-0.300835;-0.505202;0.969607;-1.53108;1.02326;0.556148;-0.48033;-0.107385;7.66
1.34144;-0.300835;-0.505202;0.969607;-1.53108;1.02326;0.556148;-0.48033;-0.107385;7.665
1.34144;-0.300835;-0.505202;0.969607;-1.53108;1.02326;0.556148;-0.48033;-0.107385;7.67
1.5351;-0.242911;-0.18952;0.97888;-1.53931;1.02139;0.56967;-0.492251;-0.114478;7.675
1.5351;-0.242911;-0.18952;0.97888;-1.53931;1.02139;0.56967;-0.492251;-0.114478;7.68
1.5351;-0.242911;-0.18952;0.97888;-1.53931;1.02139;0.56967;-0.492251;-0.114478;7.685
1.23157;-0.8592;-0.302232;0.988557;-1.54778;1.01938;0.588821;-0.506667;-0.120512;7.69
1.23157;-0.8592;-0.302232;0.988557;-1.54778;1.01938;0.588821;-0.506667;-0.120512;7.695
1.23157;-0.8592;-0.302232;0.988557;-1.54778;1.01938;0.588821;-0.506667;-0.120512;7.7
1.23157;-0.8592;-0.302232;0.988557;-1.54778;1.01938;0.588821;-0.506667;-0.120512;7.705
0.89183;-1.0153;-0.145044;0.998586;-1.55638;1.01725;0.60679;-0.521179;-0.126091;7.71
0.89183;-1.0153;-0.145044;0.998586;-1.55638;1.01725;0.60679;-0.521179;-0.126091;7.715
0.89183;-1.0153;-0.145044;0.998586;-1.55638;1.01725;0.60679;-0.521179;-0.126091;7.72
0.744749;-0.0808122;-0.083855;1.0089;-1.56502;1.01513;0.620366;-0.535296;-0.125061;7.725
0.744749;-0.0808122;-0.083855;1.0089;-1.56502;1.01513;0.620366;-0.535296;-0.125061;7.73
0.744749;-0.0808122;-0.083855;1.0089;-1.56502;1.01513;0.620366;-0.535296;-0.125061;7.735
0.609817;-0.0600733;-0.470104;1.01946;-1.57368;1.0129;0.64683;-0.530389;-0.116715;7.74
0.609817;-0.0600733;-0.470104;1.01946;-1.57368;1.0129;0.64683;-0.530389;-0.116715;7.745
0.609817;-0.0600733;-0.470104;1.01946;-1.57368;1.0129;0.64683;-0.530389;-0.116715;7.75
0.609817;-0.0600733;-0.470104;1.01946;-1.57368;1.0129;0.64683;-0.530389;-0.116715;7.755
1.64801;0.640043;0.736077;1.03031;-1.58236;1.01069;0.662091;-0.522396;-0.104112;7.76
1.64801;0.640043;0.736077;1.03031;-1.58236;1.01069;0.662091;-0.522396;-0.104112;7.765
1.64801;0.640043;0.736077;1.03031;-1.58236;1.01069;0.662091;-0.522396;-0.104112;7.77
1.65434;0.565763;1.98918;1.04154;-1.59095;1.00904;0.683199;-0.521606;-0.0811099;7.775
1.65434;0.565763;1.98918;1.04154;-1.59095;1.00904;0.683199;-0.521606;-0.0811099;7.78
1.65434;0.565763;1.98918;1.04154;-1.59095;1.00904;0.683199;-0.521606;-0.0811099;7.785
1.93386;-1.48082;1.4007;1.05342;-1.59929;1.00814;0.72008;-0.505855;-0.0437248;7.79
1.93386;-1.48082;1.4007;1.05342;-1.59929;1.00814;0.72008;-0.505855;-0.0437248;7.795
1.93386;-1.48082;1.4007;1.05342;-1.59929;1.00814;0.72008;-0.505855;-0.0437248;7.8
2.97767;-1.74683;3.85943;1.06568;-1.60755;1.0078;0.704247;-0.530913;0.00519938;7.805
2.97767;-1.74683;3.85943;1.06568;-1.60755;1.0078;0.704247;-0.530913;0.00519938;7.81
2.97767;-1.74683;3.85943;1.06568;-1.60755;1.0078;0.704247;-0.530913;0.00519938;7.815
2.97767;-1.74683;3.85943;1.06568;-1.60755;1.0078;0.704247;-0.530913;0.00519938;7.82
-1.37825;1.75602;2.7042;1.07766;-1.61613;1.00802;0.728756;-0.558446;0.0550184;7.825
-1.37825;1.75602;2.7042;1.07766;-1.61613;1.00802;0.728756;-0.558446;0.0550184;7.83
-1.37825;1.75602;2.7042;1.07766;-1.61613;1.00802;0.728756;-0.558446;0.0550184;7.835
-2.1776;0.698788;0.19049;1.089;-1.62529;1.00891;0.770114;-0.548655;0.0850904;7.84
-2.1776;0.698788;0.19049;1.089;-1.62529;1.00891;0.770114;-0.548655;0.0850904;7.845
-2.1776;0.698788;0.19049;1.089;-1.62529;1.00891;0.770114;-0.548655;0.0850904;7.85
-2.1776;0.698788;0.19049;1.089;-1.62529;1.00891;0.770114;-0.548655;0.0850904;7.855
0.163889;-0.403919;2.02788;1.10007;-1.63476;1.01037;0.723464;-0.571396;0.102323;7.86
0.163889;-0.403919;2.02788;1.10007;-1.63476;1.01037;0.723464;-0.571396;0.102323;7.865
0.163889;-0.403919;2.02788;1.10007;-1.63476;1.01037;0.723464;-0.571396;0.102323;7.87
-0.156522;-1.48483;0.988648;1.11137;-1.64416;1.01209;0.690767;-0.578864;0.110573;7.875
-0.156522;-1.48483;0.988648;1.11137;-1.64416;1.01209;0.690767;-0.578864;0.110573;7.88
-0.156522;-1.48483;0.988648;1.11137;-1.64416;1.01209;0.690767;-0.578864;0.110573;7.885
0.00203807;-1.28984;0.210067;1.12326;-1.65332;1.01413;0.669981;-0.580512;0.113963;7.89
0.00203807;-1.28984;0.210067;1.12326;-1.65332;1.01413;0.669981;-0.580512;0.113963;7.895
0.00203807;-1.28984;0.210067;1.12326;-1.65332;1.01413;0.669981;-0.580512;0.113963;7.9
0.00203807;-1.28984;0.210067;1.12326;-1.65332;1.01413;0.669981;-0.580512;0.113963;7.905
-0.441182;0.647593;-0.136766;1.13535;-1.66244;1.01647;0.671404;-0.578005;0.115328;7.91
-0.441182;0.647593;-0.136766;1.13535;-1.66244;1.01647;0.671404;-0.578005;0.115328;7.915
-0.441182;0.647593;-0.136766;1.13535;-1.66244;1.01647;0.671404;-0.578005;0.115328;7.92
-1.071;0.608415;-0.247389;1.14704;-1.67163;1.01864;0.676342;-0.563069;0.112386;7.925
-1.071;0.608415;-0.247389;1.14704;-1.67163;1.01864;0.676342;-0.563069;0.112386;7.93
-1.071;0.608415;-0.247389;1.14704;-1.67163;1.01864;0.676342;-0.563069;0.112386;7.935
-0.66021;0.876652;-0.770738;1.15813;-1.68101;1.02044;0.656723;-0.558283;0.102555;7.94
-0.66021;0.876652;-0.770738;1.15813;-1.68101;1.02044;0.656723;-0.558283;0.102555;7.945
-0.66021;0.876652;-0.770738;1.15813;-1.68101;1.02044;0.656723;-0.558283;0.102555;7.95
-0.66021;0.876652;-0.770738;1.15813;-1.68101;1.02044;0.656723;-0.558283;0.102555;7.955
-0.829564;0.785829;-0.797377;1.16884;-1.69044;1.02206;0.622918;-0.567423;0.0883594;7.96
-0.829564;0.785829;-0.797377;1.16884;-1.69044;1.02206;0.622918;-0.567423;0.0883594;7.965
-0.829564;0.785829;-0.797377;1.16884;-1.69044;1.02206;0.622918;-0.567423;0.0883594;7.97
-1.05421;0.341457;-0.561816;1.17926;-1.69963;1.02357;0.585889;-0.575594;0.0779879;7.975
-1.05421;0.341457;-0.561816;1.17926;-1.69963;1.02357;0.585889;-0.575594;0.0779879;7.98
-1.05421;0.341457;-0.561816;1.17926;-1.69963;1.02357;0.585889;-0.575594;0.0779879;7.985
-1.38511;-0.224336;-0.215804;1.1894;-1.70842;1.02493;0.562263;-0.575457;0.0750097;7.99
-1.38511;-0.224336;-0.215804;1.1894;-1.70842;1.02493;0.562263;-0.575457;0.0750097;7.995
-1.38511;-0.224336;-0.215804;1.1894;-1.70842;1.02493;0.562263;-0.575457;0.0750097;8
-1.38511;-0.224336;-0.215804;1.1894;-1.70842;1.02493;0.562263;-0.575457;0.0750097;8.005
-1.08351;-0.00630298;0.429885;1.19922;-1.71698;1.02616;0.537932;-0.5782;0.0799218;8.01
-1.08351;-0.00630298;0.429885;1.19922;-1.71698;1.02616;0.537932;-0.5782;0.0799218;8.015
-1.08351;-0.00630298;0.429885;1.19922;-1.71698;1.02616;0.537932;-0.5782;0.0799218;8.02
-1.20775;0.172122;0.590847;1.20874;-1.72556;1.02738;0.515374;-0.576864;0.0881921;8.025
-1.20775;0.172122;0.590847;1.20874;-1.72556;1.02738;0.515374;-0.576864;0.0881921;8.03
-1.20775;0.172122;0.590847;1.20874;-1.72556;1.02738;0.515374;-0.576864;0.0881921;8.035
-1.20735;0.418909;0.849729;1.21795;-1.7343;1.02867;0.501019;-0.560554;0.0994783;8.04
-1.20735;0.418909;0.849729;1.21795;-1.7343;1.02867;0.501019;-0.560554;0.0994783;8.045
-1.20735;0.418909;0.849729;1.21795;-1.7343;1.02867;0.501019;-0.560554;0.0994783;8.05
-1.20735;0.418909;0.849729;1.21795;-1.7343;1.02867;0.501019;-0.560554;0.0994783;8.055
-0.890193;0.605615;0.617878;1.22686;-1.74306;1.02996;0.488019;-0.539334;0.111711;8.06
-0.890193;0.605615;0.617878;1.22686;-1.74306;1.02996;0.488019;-0.539334;0.111711;8.065
-0.890193;0.605615;0.617878;1.22686;-1.74306;1.02996;0.488019;-0.539334;0.111711;8.07
-0.832016;0.567841;-0.0179961;1.23556;-1.7517;1.03115;0.477229;-0.520496;0.113603;8.075
-0.832016;0.567841;-0.0179961;1.23556;-1.7517;1.03115;0.477229;-0.520496;0.113603;8.08
-0.832016;0.567841;-0.0179961;1.23556;-1.7517;1.03115;0.477229;-0.520496;0.113603;8.085
-0.974104;0.450239;-0.783936;1.24408;-1.76015;1.03227;0.467982;-0.509559;0.0997601;8.09
-0.974104;0.450239;-0.783936;1.24408;-1.76015;1.03227;0.467982;-0.509559;0.0997601;8.095
-0.974104;0.450239;-0.783936;1.24408;-1.76015;1.03227;0.467982;-0.509559;0.0997601;8.1
-0.926277;0.0765309;-1.03622;1.25241;-1.76847;1.0333;0.456634;-0.50426;0.0789993;8.105
-0.926277;0.0765309;-1.03622;1.25241;-1.76847;1.0333;0.456634;-0.50426;0.0789993;8.11
-0.926277;0.0765309;-1.03622;1.25241;-1.76847;1.0333;0.456634;-0.50426;0.0789993;8.115
-0.926277;0.0765309;-1.03622;1.25241;-1.76847;1.0333;0.456634;-0.50426;0.0789993;8.12
-0.685985;-0.24757;-1.08485;1.2606;-1.77676;1.03411;0.447529;-0.498646;0.0584624;8.125
-0.685985;-0.24757;-1.08485;1.2606;-1.77676;1.03411;0.447529;-0.498646;0.0584624;8.13
-0.685985;-0.24757;-1.08485;1.2606;-1.77676;1.03411;0.447529;-0.498646;0.0584624;8.135
-0.630497;-0.130961;-0.944734;1.26865;-1.78505;1.03467;0.443345;-0.492782;0.0418345;8.14
-0.630497;-0.130961;-0.944734;1.26865;-1.78505;1.03467;0.443345;-0.492782;0.0418345;8.145
-0.630497;-0.130961;-0.944734;1.26865;-1.78505;1.03467;0.443345;-0.492782;0.0418345;8.15
-0.630497;-0.130961;-0.944734;1.26865;-1.78505;1.03467;0.443345;-0.492782;0.0418345;8.155
-0.506515;0.168003;-0.938754;1.27656;-1.79331;1.03502;0.438618;-0.490828;0.0251478;8.16
-0.506515;0.168003;-0.938754;1.27656;-1.79331;1.03502;0.438618;-0.490828;0.0251478;8.165
-0.506515;0.168003;-0.938754;1.27656;-1.79331;1.03502;0.438618;-0.490828;0.0251478;8.17
-0.374574;0.214269;-1.02425;1.28431;-1.80153;1.03514;0.434674;-0.490582;0.00625504;8.175
-0.374574;0.214269;-1.02425;1.28431;-1.80153;1.03514;0.434674;-0.490582;0.00625504;8.18
-0.374574;0.214269;-1.02425;1.28431;-1.80153;1.03514;0.434674;-0.490582;0.00625504;8.185
-0.586078;0.146348;-1.13509;1.29188;-1.80967;1.03504;0.433313;-0.486427;-0.0125451;8.19
-0.586078;0.146348;-1.13509;1.29188;-1.80967;1.03504;0.433313;-0.486427;-0.0125451;8.195
-0.586078;0.146348;-1.13509;1.29188;-1.80967;1.03504;0.433313;-0.486427;-0.0125451;8.2
-0.586078;0.146348;-1.13509;1.29188;-1.80967;1.03504;0.433313;-0.486427;-0.0125451;8.205
-0.735549;-0.226227;-0.934361;1.29929;-1.81778;1.03472;0.422376;-0.48246;-0.0273263;8.21
-0.735549;-0.226227;-0.934361;1.29929;-1.81778;1.03472;0.422376;-0.48246;-0.0273263;8.215
-0.735549;-0.226227;-0.934361;1.29929;-1.81778;1.03472;0.422376;-0.48246;-0.0273263;8.22
-0.31999;-0.00610436;-0.924863;1.30663;-1.82595;1.03422;0.422147;-0.48107;-0.0421364;8.225
-0.31999;-0.00610436;-0.924863;1.30663;-1.82595;1.03422;0.422147;-0.48107;-0.0421364;8.23
-0.31999;-0.00610436;-0.924863;1.30663;-1.82595;1.03422;0.422147;-0.48107;-0.0421364;8.235
-0.40008;-0.228715;-0.828037;1.31388;-1.83422;1.03353;0.420488;-0.484585;-0.0518552;8.24
-0.40008;-0.228715;-0.828037;1.31388;-1.83422;1.03353;0.420488;-0.484585;-0.0518552;8.245
-0.40008;-0.228715;-0.828037;1.31388;-1.83422;1.03353;0.420488;-0.484585;-0.0518552;8.25
0.00764807;-0.402728;-0.5495;1.32103;-1.84256;1.03266;0.423871;-0.488987;-0.0607741;8.255
0.00764807;-0.402728;-0.5495;1.32103;-1.84256;1.03266;0.423871;-0.488987;-0.0607741;8.26
0.00764807;-0.402728;-0.5495;1.32103;-1.84256;1.03266;0.423871;-0.488987;-0.0607741;8.265
0.00764807;-0.402728;-0.5495;1.32103;-1.84256;1.03266;0.423871;-0.488987;-0.0607741;8.27
0.143915;-0.499665;-0.322014;1.3281;-1.85101;1.03168;0.426407;-0.488896;-0.068987;8.275
0.143915;-0.499665;-0.322014;1.3281;-1.85101;1.03168;0.426407;-0.488896;-0.068987;8.28
0.143915;-0.499665;-0.322014;1.3281;-1.85101;1.03168;0.426407;-0.488896;-0.068987;8.285
-0.260576;-0.17703;-0.392765;1.33509;-1.85956;1.03057;0.423949;-0.491687;-0.074717;8.29
-0.260576;-0.17703;-0.392765;1.33509;-1.85956;1.03057;0.423949;-0.491687;-0.074717;8.295
-0.260576;-0.17703;-0.392765;1.33509;-1.85956;1.03057;0.423949;-0.491687;-0.074717;8.3
-0.260576;-0.17703;-0.392765;1.33509;-1.85956;1.03057;0.423949;-0.491687;-0.074717;8.305
-0.179936;-0.262998;-0.261933;1.342;-1.86821;1.02934;0.425237;-0.494431;-0.0793004;8.31
-0.179936;-0.262998;-0.261933;1.342;-1.86821;1.02934;0.425237;-0.494431;-0.0793004;8.315
-0.179936;-0.262998;-0.261933;1.342;-1.86821;1.02934;0.425237;-0.494431;-0.0793004;8.32
-0.192341;-0.394984;-0.358323;1.34885;-1.87699;1.02809;0.419751;-0.504717;-0.0827495;8.325
-0.192341;-0.394984;-0.358323;1.34885;-1.87699;1.02809;0.419751;-0.504717;-0.0827495;8.33
-0.192341;-0.394984;-0.358323;1.34885;-1.87699;1.02809;0.419751;-0.504717;-0.0827495;8.335
-0.439916;-0.65583;-0.450945;1.35559;-1.88586;1.02683;0.417865;-0.519181;-0.0863842;8.34
-0.439916;-0.65583;-0.450945;1.35559;-1.88586;1.02683;0.417865;-0.519181;-0.0863842;8.345
-0.439916;-0.65583;-0.450945;1.35559;-1.88586;1.02683;0.417865;-0.519181;-0.0863842;8.35
-0.439916;-0.65583;-0.450945;1.35559;-1.88586;1.02683;0.417865;-0.519181;-0.0863842;8.355
-0.0943134;-1.0262;-0.244424;1.36228;-1.89486;1.02551;0.413041;-0.534076;-0.0916062;8.36
-0.0943134;-1.0262;-0.244424;1.36228;-1.89486;1.02551;0.413041;-0.534076;-0.0916062;8.365
-0.0943134;-1.0262;-0.244424;1.36228;-1.89486;1.02551;0.413041;-0.534076;-0.0916062;8.37
0.198748;-1.23672;-0.157632;1.36901;-1.90414;1.02415;0.412094;-0.55267;-0.0946257;8.375
0.198748;-1.23672;-0.157632;1.36901;-1.90414;1.02415;0.412094;-0.55267;-0.0946257;8.38
0.198748;-1.23672;-0.157632;1.36901;-1.90414;1.02415;0.412094;-0.55267;-0.0946257;8.385
0.40028;-1.48908;0.102534;1.37583;-1.9138;1.02271;0.419678;-0.569483;-0.0949777;8.39
0.40028;-1.48908;0.102534;1.37583;-1.9138;1.02271;0.419678;-0.569483;-0.0949777;8.395
0.40028;-1.48908;0.102534;1.37583;-1.9138;1.02271;0.419678;-0.569483;-0.0949777;8.4
0.204367;-1.0666;-0.029655;1.38269;-1.92375;1.0212;0.425696;-0.591162;-0.0934625;8.405
0.204367;-1.0666;-0.029655;1.38269;-1.92375;1.0212;0.425696;-0.591162;-0.0934625;8.41
0.204367;-1.0666;-0.029655;1.38269;-1.92375;1.0212;0.425696;-0.591162;-0.0934625;8.415
0.204367;-1.0666;-0.029655;1.38269;-1.92375;1.0212;0.425696;-0.591162;-0.0934625;8.42
0.342713;-0.681586;-0.210237;1.38954;-1.93394;1.0196;0.426126;-0.614713;-0.0941725;8.425
0.342713;-0.681586;-0.210237;1.38954;-1.93394;1.0196;0.426126;-0.614713;-0.0941725;8.43
0.342713;-0.681586;-0.210237;1.38954;-1.93394;1.0196;0.426126;-0.614713;-0.0941725;8.435
-0.20014;-0.38104;-0.42587;1.3964;-1.94429;1.01781;0.42404;-0.628325;-0.102695;8.44
-0.20014;-0.38104;-0.42587;1.3964;-1.94429;1.01781;0.42404;-0.628325;-0.102695;8.445
-0.20014;-0.38104;-0.42587;1.3964;-1.94429;1.01781;0.42404;-0.628325;-0.102695;8.45
-0.20014;-0.38104;-0.42587;1.3964;-1.94429;1.01781;0.42404;-0.628325;-0.102695;8.455
-0.399943;-0.391452;-0.617395;1.40324;-1.95487;1.01594;0.418629;-0.643193;-0.111587;8.46
-0.399943;-0.391452;-0.617395;1.40324;-1.95487;1.01594;0.418629;-0.643193;-0.111587;8.465
-0.399943;-0.391452;-0.617395;1.40324;-1.95487;1.01594;0.418629;-0.643193;-0.111587;8.47
-0.244634;-1.18838;-0.352367;1.40998;-1.96581;1.01427;0.415798;-0.653227;-0.111099;8.475
-0.244634;-1.18838;-0.352367;1.40998;-1.96581;1.01427;0.415798;-0.653227;-0.111099;8.48
-0.244634;-1.18838;-0.352367;1.40998;-1.96581;1.01427;0.415798;-0.653227;-0.111099;8.485
-0.540947;-1.2783;0.427888;1.41651;-1.97717;1.01276;0.42304;-0.675329;-0.0974817;8.49
-0.540947;-1.2783;0.427888;1.41651;-1.97717;1.01276;0.42304;-0.675329;-0.0974817;8.495
-0.540947;-1.2783;0.427888;1.41651;-1.97717;1.01276;0.42304;-0.675329;-0.0974817;8.5
-0.540947;-1.2783;0.427888;1.41651;-1.97717;1.01276;0.42304;-0.675329;-0.0974817;8.505
-0.265883;-1.20774;1.17562;1.42294;-1.98887;1.01144;0.416478;-0.696881;-0.0761136;8.51
-0.265883;-1.20774;1.17562;1.42294;-1.98887;1.01144;0.416478;-0.696881;-0.0761136;8.515
-0.265883;-1.20774;1.17562;1.42294;-1.98887;1.01144;0.416478;-0.696881;-0.0761136;8.52
0.813874;-1.56112;1.42971;1.42949;-2.00084;1.01074;0.410473;-0.730605;-0.0419365;8.525
0.813874;-1.56112;1.42971;1.42949;-2.00084;1.01074;0.410473;-0.730605;-0.0419365;8.53
0.813874;-1.56112;1.42971;1.42949;-2.00084;1.01074;0.410473;-0.730605;-0.0419365;8.535
1.08689;-1.36262;3.34144;1.43623;-2.0131;1.01088;0.443205;-0.716324;-0.00162981;8.54
1.08689;-1.36262;3.34144;1.43623;-2.0131;1.01088;0.443205;-0.716324;-0.00162981;8.545
1.08689;-1.36262;3.34144;1.43623;-2.0131;1.01088;0.443205;-0.716324;-0.00162981;8.55
1.0944;-0.233982;3.55399;1.44309;-2.02561;1.01165;0.477014;-0.681989;0.0429775;8.555
1.0944;-0.233982;3.55399;1.44309;-2.02561;1.01165;0.477014;-0.681989;0.0429775;8.56
1.0944;-0.233982;3.55399;1.44309;-2.02561;1.01165;0.477014;-0.681989;0.0429775;8.565
1.0944;-0.233982;3.55399;1.44309;-2.02561;1.01165;0.477014;-0.681989;0.0429775;8.57
-0.0201907;1.6003;0.378874;1.45017;-2.03827;1.01286;0.448366;-0.723079;0.076249;8.575
-0.0201907;1.6003;0.378874;1.45017;-2.03827;1.01286;0.448366;-0.723079;0.076249;8.58
-0.0201907;1.6003;0.378874;1.45017;-2.03827;1.01286;0.448366;-0.723079;0.076249;8.585
-1.33665;-0.570981;0.351353;1.45765;-2.05111;1.01466;0.457084;-0.731833;0.0888524;8.59
-1.33665;-0.570981;0.351353;1.45765;-2.05111;1.01466;0.457084;-0.731833;0.0888524;8.595
-1.33665;-0.570981;0.351353;1.45765;-2.05111;1.01466;0.457084;-0.731833;0.0888524;8.6
-1.33665;-0.570981;0.351353;1.45765;-2.05111;1.01466;0.457084;-0.731833;0.0888524;8.605
0.815702;-0.61489;0.398184;1.46535;-2.06408;1.01691;0.450703;-0.749541;0.0870088;8.61
0.815702;-0.61489;0.398184;1.46535;-2.06408;1.01691;0.450703;-0.749541;0.0870088;8.615
0.815702;-0.61489;0.398184;1.46535;-2.06408;1.01691;0.450703;-0.749541;0.0870088;8.62
1.06034;0.0137499;0.0960476;1.47281;-2.0769;1.01902;0.447784;-0.763579;0.0875433;8.625
1.06034;0.0137499;0.0960476;1.47281;-2.0769;1.01902;0.447784;-0.763579;0.0875433;8.63
1.06034;0.0137499;0.0960476;1.47281;-2.0769;1.01902;0.447784;-0.763579;0.0875433;8.635
-0.457418;0.653014;0.256319;1.47984;-2.08953;1.02079;0.444168;-0.756606;0.0915355;8.64
-0.457418;0.653014;0.256319;1.47984;-2.08953;1.02079;0.444168;-0.756606;0.0915355;8.645
-0.457418;0.653014;0.256319;1.47984;-2.08953;1.02079;0.444168;-0.756606;0.0915355;8.65
-0.457418;0.653014;0.256319;1.47984;-2.08953;1.02079;0.444168;-0.756606;0.0915355;8.655
-0.918183;0.866501;-0.204505;1.48665;-2.10199;1.02243;0.424558;-0.743489;0.0944475;8.66
