XsensPlugin_processed_com_acceleration_x;XsensPlugin_processed_com_acceleration_y;XsensPlugin_processed_com_acceleration_z;XsensPlugin_processed_com_position_x;XsensPlugin_processed_com_position_y;XsensPlugin_processed_com_position_z;XsensPlugin_processed_com_velocity_x;XsensPlugin_processed_com_velocity_y;XsensPlugin_processed_com_velocity_z;t
0;0;0;0;0;0;0;0;0;0
0;0;0;0;0;0;0;0;0;0.005
0;0;0;0;0;0;0;0;0;0.01
0;0;0;0;0;0;0;0;0;0.015
0;0;0;0;0;0;0;0;0;0.02
0;0;0;0;0;0;0;0;0;0.025
0;0;0;0;0;0;0;0;0;0.03
0;0;0;0;0;0;0;0;0;0.035
0;0;0;0;0;0;0;0;0;0.04
0;0;0;0;0;0;0;0;0;0.045
0;0;0;0;0;0;0;0;0;0.05
0;0;0;0;0;0;0;0;0;0.055
0;0;0;0;0;0;0;0;0;0.06
0;0;0;0;0;0;0;0;0;0.065
0;0;0;0;0;0;0;0;0;0.07
0;0;0;0;0;0;0;0;0;0.075
0;0;0;0;0;0;0;0;0;0.08
0;0;0;0;0;0;0;0;0;0.085
0;0;0;0;0;0;0;0;0;0.09
0;0;0;0;0;0;0;0;0;0.095
0;0;0;0;0;0;0;0;0;0.1
0;0;0;0;0;0;0;0;0;0.105
0;0;0;0;0;0;0;0;0;0.11
0;0;0;0;0;0;0;0;0;0.115
0;0;0;0;0;0;0;0;0;0.12
0;0;0;0;0;0;0;0;0;0.125
0;0;0;0;0;0;0;0;0;0.13
0;0;0;0;0;0;0;0;0;0.135
0;0;0;0;0;0;0;0;0;0.14
0;0;0;0;0;0;0;0;0;0.145
0;0;0;0;0;0;0;0;0;0.15
0;0;0;0;0;0;0;0;0;0.155
0;0;0;0;0;0;0;0;0;0.16
0;0;0;0;0;0;0;0;0;0.165
0;0;0;0;0;0;0;0;0;0.17
0;0;0;0;0;0;0;0;0;0.175
0;0;0;0;0;0;0;0;0;0.18
0;0;0;0;0;0;0;0;0;0.185
0;0;0;0;0;0;0;0;0;0.19
0;0;0;0;0;0;0;0;0;0.195
0;0;0;0;0;0;0;0;0;0.2
0;0;0;0;0;0;0;0;0;0.205
0;0;0;0;0;0;0;0;0;0.21
0;0;0;0;0;0;0;0;0;0.215
0;0;0;0;0;0;0;0;0;0.22
0;0;0;0;0;0;0;0;0;0.225
0;0;0;0;0;0;0;0;0;0.23
0;0;0;0;0;0;0;0;0;0.235
0;0;0;0;0;0;0;0;0;0.24
0;0;0;0;0;0;0;0;0;0.245
0;0;0;0;0;0;0;0;0;0.25
0;0;0;0;0;0;0;0;0;0.255
0;0;0;0;0;0;0;0;0;0.26
0;0;0;0;0;0;0;0;0;0.265
0;0;0;0;0;0;0;0;0;0.27
0;0;0;0;0;0;0;0;0;0.275
0;0;0;0;0;0;0;0;0;0.28
0;0;0;0;0;0;0;0;0;0.285
0;0;0;0;0;0;0;0;0;0.29
0;0;0;0;0;0;0;0;0;0.295
0;0;0;0;0;0;0;0;0;0.3
0;0;0;0;0;0;0;0;0;0.305
0;0;0;0;0;0;0;0;0;0.31
0;0;0;0;0;0;0;0;0;0.315
0;0;0;0;0;0;0;0;0;0.32
0;0;0;0;0;0;0;0;0;0.325
0;0;0;0;0;0;0;0;0;0.33
0;0;0;0;0;0;0;0;0;0.335
0;0;0;0;0;0;0;0;0;0.34
0;0;0;0;0;0;0;0;0;0.345
0;0;0;0;0;0;0;0;0;0.35
0;0;0;0;0;0;0;0;0;0.355
0;0;0;0;0;0;0;0;0;0.36
0;0;0;0;0;0;0;0;0;0.365
0;0;0;0;0;0;0;0;0;0.37
0;0;0;0;0;0;0;0;0;0.375
0;0;0;0;0;0;0;0;0;0.38
0;0;0;0;0;0;0;0;0;0.385
0;0;0;0;0;0;0;0;0;0.39
0;0;0;0;0;0;0;0;0;0.395
0;0;0;0;0;0;0;0;0;0.4
0;0;0;0;0;0;0;0;0;0.405
0;0;0;0;0;0;0;0;0;0.41
0;0;0;0;0;0;0;0;0;0.415
0;0;0;0;0;0;0;0;0;0.42
0;0;0;0;0;0;0;0;0;0.425
0;0;0;0;0;0;0;0;0;0.43
0;0;0;0;0;0;0;0;0;0.435
0;0;0;0;0;0;0;0;0;0.44
0;0;0;0;0;0;0;0;0;0.445
0;0;0;0;0;0;0;0;0;0.45
0;0;0;0;0;0;0;0;0;0.455
0;0;0;0;0;0;0;0;0;0.46
0;0;0;0;0;0;0;0;0;0.465
0;0;0;0;0;0;0;0;0;0.47
0;0;0;0;0;0;0;0;0;0.475
0;0;0;0;0;0;0;0;0;0.48
0;0;0;0;0;0;0;0;0;0.485
0;0;0;0;0;0;0;0;0;0.49
0;0;0;0;0;0;0;0;0;0.495
0;0;0;0;0;0;0;0;0;0.5
0;0;0;0;0;0;0;0;0;0.505
0;0;0;0;0;0;0;0;0;0.51
0;0;0;0;0;0;0;0;0;0.515
0;0;0;0;0;0;0;0;0;0.52
0;0;0;0;0;0;0;0;0;0.525
0;0;0;0;0;0;0;0;0;0.53
0;0;0;0;0;0;0;0;0;0.535
0;0;0;0;0;0;0;0;0;0.54
0;0;0;0;0;0;0;0;0;0.545
0;0;0;0;0;0;0;0;0;0.55
0;0;0;0;0;0;0;0;0;0.555
0;0;0;0;0;0;0;0;0;0.56
0;0;0;0;0;0;0;0;0;0.565
0;0;0;0;0;0;0;0;0;0.57
0;0;0;0;0;0;0;0;0;0.575
0;0;0;0;0;0;0;0;0;0.58
0;0;0;0;0;0;0;0;0;0.585
0;0;0;0;0;0;0;0;0;0.59
0;0;0;0;0;0;0;0;0;0.595
0;0;0;0;0;0;0;0;0;0.6
0;0;0;0;0;0;0;0;0;0.605
0;0;0;0;0;0;0;0;0;0.61
0;0;0;0;0;0;0;0;0;0.615
0;0;0;0;0;0;0;0;0;0.62
0;0;0;0;0;0;0;0;0;0.625
0;0;0;0;0;0;0;0;0;0.63
0;0;0;0;0;0;0;0;0;0.635
0;0;0;0;0;0;0;0;0;0.64
0;0;0;0;0;0;0;0;0;0.645
0;0;0;0;0;0;0;0;0;0.65
0;0;0;0;0;0;0;0;0;0.655
0;0;0;0;0;0;0;0;0;0.66
0;0;0;0;0;0;0;0;0;0.665
0;0;0;0;0;0;0;0;0;0.67
0;0;0;0;0;0;0;0;0;0.675
0;0;0;0;0;0;0;0;0;0.68
0;0;0;0;0;0;0;0;0;0.685
0;0;0;0;0;0;0;0;0;0.69
0;0;0;0;0;0;0;0;0;0.695
0;0;0;0;0;0;0;0;0;0.7
0;0;0;0;0;0;0;0;0;0.705
0;0;0;0;0;0;0;0;0;0.71
0;0;0;0;0;0;0;0;0;0.715
0;0;0;0;0;0;0;0;0;0.72
0;0;0;0;0;0;0;0;0;0.725
0;0;0;0;0;0;0;0;0;0.73
0;0;0;0;0;0;0;0;0;0.735
0;0;0;0;0;0;0;0;0;0.74
0;0;0;0;0;0;0;0;0;0.745
0;0;0;0;0;0;0;0;0;0.75
0;0;0;0;0;0;0;0;0;0.755
0;0;0;0;0;0;0;0;0;0.76
0;0;0;0;0;0;0;0;0;0.765
0;0;0;0;0;0;0;0;0;0.77
0;0;0;0;0;0;0;0;0;0.775
0;0;0;0;0;0;0;0;0;0.78
0;0;0;0;0;0;0;0;0;0.785
0;0;0;0;0;0;0;0;0;0.79
0;0;0;0;0;0;0;0;0;0.795
0;0;0;0;0;0;0;0;0;0.8
0;0;0;0;0;0;0;0;0;0.805
0;0;0;0;0;0;0;0;0;0.81
0;0;0;0;0;0;0;0;0;0.815
0;0;0;0;0;0;0;0;0;0.82
0;0;0;0;0;0;0;0;0;0.825
0;0;0;0;0;0;0;0;0;0.83
0;0;0;0;0;0;0;0;0;0.835
0;0;0;0;0;0;0;0;0;0.84
0;0;0;0;0;0;0;0;0;0.845
0;0;0;0;0;0;0;0;0;0.85
0;0;0;0;0;0;0;0;0;0.855
0;0;0;0;0;0;0;0;0;0.86
0;0;0;0;0;0;0;0;0;0.865
0;0;0;0;0;0;0;0;0;0.87
0;0;0;0;0;0;0;0;0;0.875
0;0;0;0;0;0;0;0;0;0.88
0;0;0;0;0;0;0;0;0;0.885
0;0;0;0;0;0;0;0;0;0.89
0;0;0;0;0;0;0;0;0;0.895
0;0;0;0;0;0;0;0;0;0.9
0;0;0;0;0;0;0;0;0;0.905
0;0;0;0;0;0;0;0;0;0.91
0;0;0;0;0;0;0;0;0;0.915
0;0;0;0;0;0;0;0;0;0.92
0;0;0;0;0;0;0;0;0;0.925
0;0;0;0;0;0;0;0;0;0.93
0;0;0;0;0;0;0;0;0;0.935
0;0;0;0;0;0;0;0;0;0.94
0;0;0;0;0;0;0;0;0;0.945
0;0;0;0;0;0;0;0;0;0.95
0;0;0;0;0;0;0;0;0;0.955
0;0;0;0;0;0;0;0;0;0.96
0;0;0;0;0;0;0;0;0;0.965
0;0;0;0;0;0;0;0;0;0.97
0;0;0;0;0;0;0;0;0;0.975
0;0;0;0;0;0;0;0;0;0.98
0;0;0;0;0;0;0;0;0;0.985
0;0;0;0;0;0;0;0;0;0.99
0;0;0;0;0;0;0;0;0;0.995
0;0;0;0;0;0;0;0;0;1
0;0;0;0;0;0;0;0;0;1.005
0;0;0;0;0;0;0;0;0;1.01
0;0;0;0;0;0;0;0;0;1.015
0;0;0;0;0;0;0;0;0;1.02
0;0;0;0;0;0;0;0;0;1.025
0;0;0;0;0;0;0;0;0;1.03
0;0;0;0;0;0;0;0;0;1.035
0;0;0;0;0;0;0;0;0;1.04
0;0;0;0;0;0;0;0;0;1.045
0;0;0;0;0;0;0;0;0;1.05
0;0;0;0;0;0;0;0;0;1.055
0;0;0;0;0;0;0;0;0;1.06
0;0;0;0;0;0;0;0;0;1.065
0;0;0;0;0;0;0;0;0;1.07
0;0;0;0;0;0;0;0;0;1.075
0;0;0;0;0;0;0;0;0;1.08
0;0;0;0;0;0;0;0;0;1.085
0;0;0;0;0;0;0;0;0;1.09
0;0;0;0;0;0;0;0;0;1.095
0;0;0;0;0;0;0;0;0;1.1
0;0;0;0;0;0;0;0;0;1.105
0;0;0;0;0;0;0;0;0;1.11
0;0;0;0;0;0;0;0;0;1.115
0;0;0;0;0;0;0;0;0;1.12
0;0;0;0;0;0;0;0;0;1.125
0;0;0;0;0;0;0;0;0;1.13
0;0;0;0;0;0;0;0;0;1.135
0;0;0;0;0;0;0;0;0;1.14
0;0;0;0;0;0;0;0;0;1.145
0;0;0;0;0;0;0;0;0;1.15
0;0;0;0;0;0;0;0;0;1.155
0;0;0;0;0;0;0;0;0;1.16
0;0;0;0;0;0;0;0;0;1.165
0;0;0;0;0;0;0;0;0;1.17
0;0;0;0;0;0;0;0;0;1.175
0;0;0;0;0;0;0;0;0;1.18
0;0;0;0;0;0;0;0;0;1.185
0;0;0;0;0;0;0;0;0;1.19
0;0;0;0;0;0;0;0;0;1.195
0;0;0;0;0;0;0;0;0;1.2
0;0;0;0;0;0;0;0;0;1.205
0;0;0;0;0;0;0;0;0;1.21
0;0;0;0;0;0;0;0;0;1.215
0;0;0;0;0;0;0;0;0;1.22
0;0;0;0;0;0;0;0;0;1.225
0;0;0;0;0;0;0;0;0;1.23
0;0;0;0;0;0;0;0;0;1.235
0;0;0;0;0;0;0;0;0;1.24
0;0;0;0;0;0;0;0;0;1.245
0;0;0;0;0;0;0;0;0;1.25
0;0;0;0;0;0;0;0;0;1.255
0;0;0;0;0;0;0;0;0;1.26
0;0;0;0;0;0;0;0;0;1.265
0;0;0;0;0;0;0;0;0;1.27
0;0;0;0;0;0;0;0;0;1.275
0;0;0;0;0;0;0;0;0;1.28
0;0;0;0;0;0;0;0;0;1.285
0;0;0;0;0;0;0;0;0;1.29
0;0;0;0;0;0;0;0;0;1.295
0;0;0;0;0;0;0;0;0;1.3
0;0;0;0;0;0;0;0;0;1.305
0;0;0;0;0;0;0;0;0;1.31
0;0;0;0;0;0;0;0;0;1.315
0;0;0;0;0;0;0;0;0;1.32
0;0;0;0;0;0;0;0;0;1.325
0;0;0;0;0;0;0;0;0;1.33
0;0;0;0;0;0;0;0;0;1.335
0;0;0;0;0;0;0;0;0;1.34
0;0;0;0;0;0;0;0;0;1.345
0;0;0;0;0;0;0;0;0;1.35
0;0;0;0;0;0;0;0;0;1.355
0;0;0;0;0;0;0;0;0;1.36
0;0;0;0;0;0;0;0;0;1.365
-0.0332702;-0.0851026;0.0614095;3.68202;-5.86569;1.0352;-0.0467675;-0.0131381;0.0018651;1.37
-0.0332702;-0.0851026;0.0614095;3.68202;-5.86569;1.0352;-0.0467675;-0.0131381;0.0018651;1.375
-0.0332702;-0.0851026;0.0614095;3.68202;-5.86569;1.0352;-0.0467675;-0.0131381;0.0018651;1.38
-0.0332702;-0.0851026;0.0614095;3.68202;-5.86569;1.0352;-0.0467675;-0.0131381;0.0018651;1.385
-0.0332702;-0.0851026;0.0614095;3.68202;-5.86569;1.0352;-0.0467675;-0.0131381;0.0018651;1.39
-0.0332702;-0.0851026;0.0614095;3.68202;-5.86569;1.0352;-0.0467675;-0.0131381;0.0018651;1.395
-0.0332702;-0.0851026;0.0614095;3.68202;-5.86569;1.0352;-0.0467675;-0.0131381;0.0018651;1.4
-0.0332702;-0.0851026;0.0614095;3.68202;-5.86569;1.0352;-0.0467675;-0.0131381;0.0018651;1.405
-0.0332702;-0.0851026;0.0614095;3.68202;-5.86569;1.0352;-0.0467675;-0.0131381;0.0018651;1.41
-0.0332702;-0.0851026;0.0614095;3.68202;-5.86569;1.0352;-0.0467675;-0.0131381;0.0018651;1.415
-0.0332702;-0.0851026;0.0614095;3.68202;-5.86569;1.0352;-0.0467675;-0.0131381;0.0018651;1.42
-0.0332702;-0.0851026;0.0614095;3.68202;-5.86569;1.0352;-0.0467675;-0.0131381;0.0018651;1.425
-0.0332702;-0.0851026;0.0614095;3.68202;-5.86569;1.0352;-0.0467675;-0.0131381;0.0018651;1.43
-0.0332702;-0.0851026;0.0614095;3.68202;-5.86569;1.0352;-0.0467675;-0.0131381;0.0018651;1.435
-0.0332702;-0.0851026;0.0614095;3.68202;-5.86569;1.0352;-0.0467675;-0.0131381;0.0018651;1.44
-0.0332702;-0.0851026;0.0614095;3.68202;-5.86569;1.0352;-0.0467675;-0.0131381;0.0018651;1.445
-0.0332702;-0.0851026;0.0614095;3.68202;-5.86569;1.0352;-0.0467675;-0.0131381;0.0018651;1.45
-0.0332702;-0.0851026;0.0614095;3.68202;-5.86569;1.0352;-0.0467675;-0.0131381;0.0018651;1.455
-0.0332702;-0.0851026;0.0614095;3.68202;-5.86569;1.0352;-0.0467675;-0.0131381;0.0018651;1.46
-0.0332702;-0.0851026;0.0614095;3.68202;-5.86569;1.0352;-0.0467675;-0.0131381;0.0018651;1.465
-0.0332702;-0.0851026;0.0614095;3.68202;-5.86569;1.0352;-0.0467675;-0.0131381;0.0018651;1.47
-0.0332702;-0.0851026;0.0614095;3.68202;-5.86569;1.0352;-0.0467675;-0.0131381;0.0018651;1.475
-0.0332702;-0.0851026;0.0614095;3.68202;-5.86569;1.0352;-0.0467675;-0.0131381;0.0018651;1.48
-0.0332702;-0.0851026;0.0614095;3.68202;-5.86569;1.0352;-0.0467675;-0.0131381;0.0018651;1.485
-0.0332702;-0.0851026;0.0614095;3.68202;-5.86569;1.0352;-0.0467675;-0.0131381;0.0018651;1.49
-0.0332702;-0.0851026;0.0614095;3.68202;-5.86569;1.0352;-0.0467675;-0.0131381;0.0018651;1.495
-0.0332702;-0.0851026;0.0614095;3.68202;-5.86569;1.0352;-0.0467675;-0.0131381;0.0018651;1.5
-0.0332702;-0.0851026;0.0614095;3.68202;-5.86569;1.0352;-0.0467675;-0.0131381;0.0018651;1.505
-0.0332702;-0.0851026;0.0614095;3.68202;-5.86569;1.0352;-0.0467675;-0.0131381;0.0018651;1.51
-0.0332702;-0.0851026;0.0614095;3.68202;-5.86569;1.0352;-0.0467675;-0.0131381;0.0018651;1.515
-0.0332702;-0.0851026;0.0614095;3.68202;-5.86569;1.0352;-0.0467675;-0.0131381;0.0018651;1.52
-0.0332702;-0.0851026;0.0614095;3.68202;-5.86569;1.0352;-0.0467675;-0.0131381;0.0018651;1.525
-0.0332702;-0.0851026;0.0614095;3.68202;-5.86569;1.0352;-0.0467675;-0.0131381;0.0018651;1.53
-0.0332702;-0.0851026;0.0614095;3.68202;-5.86569;1.0352;-0.0467675;-0.0131381;0.0018651;1.535
-0.0332702;-0.0851026;0.0614095;3.68202;-5.86569;1.0352;-0.0467675;-0.0131381;0.0018651;1.54
-0.0332702;-0.0851026;0.0614095;3.68202;-5.86569;1.0352;-0.0467675;-0.0131381;0.0018651;1.545
-0.0332702;-0.0851026;0.0614095;3.68202;-5.86569;1.0352;-0.0467675;-0.0131381;0.0018651;1.55
-0.0332702;-0.0851026;0.0614095;3.68202;-5.86569;1.0352;-0.0467675;-0.0131381;0.0018651;1.555
-0.0332702;-0.0851026;0.0614095;3.68202;-5.86569;1.0352;-0.0467675;-0.0131381;0.0018651;1.56
-0.0332702;-0.0851026;0.0614095;3.68202;-5.86569;1.0352;-0.0467675;-0.0131381;0.0018651;1.565
-0.0332702;-0.0851026;0.0614095;3.68202;-5.86569;1.0352;-0.0467675;-0.0131381;0.0018651;1.57
-0.0332702;-0.0851026;0.0614095;3.68202;-5.86569;1.0352;-0.0467675;-0.0131381;0.0018651;1.575
-0.0332702;-0.0851026;0.0614095;3.68202;-5.86569;1.0352;-0.0467675;-0.0131381;0.0018651;1.58
-0.0332702;-0.0851026;0.0614095;3.68202;-5.86569;1.0352;-0.0467675;-0.0131381;0.0018651;1.585
-0.0332702;-0.0851026;0.0614095;3.68202;-5.86569;1.0352;-0.0467675;-0.0131381;0.0018651;1.59
-0.0332702;-0.0851026;0.0614095;3.68202;-5.86569;1.0352;-0.0467675;-0.0131381;0.0018651;1.595
-0.0332702;-0.0851026;0.0614095;3.68202;-5.86569;1.0352;-0.0467675;-0.0131381;0.0018651;1.6
-0.0332702;-0.0851026;0.0614095;3.68202;-5.86569;1.0352;-0.0467675;-0.0131381;0.0018651;1.605
-0.0332702;-0.0851026;0.0614095;3.68202;-5.86569;1.0352;-0.0467675;-0.0131381;0.0018651;1.61
-0.0332702;-0.0851026;0.0614095;3.68202;-5.86569;1.0352;-0.0467675;-0.0131381;0.0018651;1.615
-0.0332702;-0.0851026;0.0614095;3.68202;-5.86569;1.0352;-0.0467675;-0.0131381;0.0018651;1.62
-0.0332702;-0.0851026;0.0614095;3.68202;-5.86569;1.0352;-0.0467675;-0.0131381;0.0018651;1.625
-0.0332702;-0.0851026;0.0614095;3.68202;-5.86569;1.0352;-0.0467675;-0.0131381;0.0018651;1.63
-0.0332702;-0.0851026;0.0614095;3.68202;-5.86569;1.0352;-0.0467675;-0.0131381;0.0018651;1.635
-0.0332702;-0.0851026;0.0614095;3.68202;-5.86569;1.0352;-0.0467675;-0.0131381;0.0018651;1.64
-0.0332702;-0.0851026;0.0614095;3.68202;-5.86569;1.0352;-0.0467675;-0.0131381;0.0018651;1.645
-0.0332702;-0.0851026;0.0614095;3.68202;-5.86569;1.0352;-0.0467675;-0.0131381;0.0018651;1.65
-0.0332702;-0.0851026;0.0614095;3.68202;-5.86569;1.0352;-0.0467675;-0.0131381;0.0018651;1.655
-0.0332702;-0.0851026;0.0614095;3.68202;-5.86569;1.0352;-0.0467675;-0.0131381;0.0018651;1.66
-0.0332702;-0.0851026;0.0614095;3.68202;-5.86569;1.0352;-0.0467675;-0.0131381;0.0018651;1.665
-0.0332702;-0.0851026;0.0614095;3.68202;-5.86569;1.0352;-0.0467675;-0.0131381;0.0018651;1.67
-0.0332702;-0.0851026;0.0614095;3.68202;-5.86569;1.0352;-0.0467675;-0.0131381;0.0018651;1.675
-0.0332702;-0.0851026;0.0614095;3.68202;-5.86569;1.0352;-0.0467675;-0.0131381;0.0018651;1.68
-0.0332702;-0.0851026;0.0614095;3.68202;-5.86569;1.0352;-0.0467675;-0.0131381;0.0018651;1.685
-0.0332702;-0.0851026;0.0614095;3.68202;-5.86569;1.0352;-0.0467675;-0.0131381;0.0018651;1.69
-0.0332702;-0.0851026;0.0614095;3.68202;-5.86569;1.0352;-0.0467675;-0.0131381;0.0018651;1.695
-0.0332702;-0.0851026;0.0614095;3.68202;-5.86569;1.0352;-0.0467675;-0.0131381;0.0018651;1.7
-0.0332702;-0.0851026;0.0614095;3.68202;-5.86569;1.0352;-0.0467675;-0.0131381;0.0018651;1.705
-0.0332702;-0.0851026;0.0614095;3.68202;-5.86569;1.0352;-0.0467675;-0.0131381;0.0018651;1.71
-0.0332702;-0.0851026;0.0614095;3.68202;-5.86569;1.0352;-0.0467675;-0.0131381;0.0018651;1.715
-0.0332702;-0.0851026;0.0614095;3.68202;-5.86569;1.0352;-0.0467675;-0.0131381;0.0018651;1.72
-0.0332702;-0.0851026;0.0614095;3.68202;-5.86569;1.0352;-0.0467675;-0.0131381;0.0018651;1.725
-0.0332702;-0.0851026;0.0614095;3.68202;-5.86569;1.0352;-0.0467675;-0.0131381;0.0018651;1.73
-0.0332702;-0.0851026;0.0614095;3.68202;-5.86569;1.0352;-0.0467675;-0.0131381;0.0018651;1.735
-0.0332702;-0.0851026;0.0614095;3.68202;-5.86569;1.0352;-0.0467675;-0.0131381;0.0018651;1.74
-0.0332702;-0.0851026;0.0614095;3.68202;-5.86569;1.0352;-0.0467675;-0.0131381;0.0018651;1.745
-0.0332702;-0.0851026;0.0614095;3.68202;-5.86569;1.0352;-0.0467675;-0.0131381;0.0018651;1.75
-0.0332702;-0.0851026;0.0614095;3.68202;-5.86569;1.0352;-0.0467675;-0.0131381;0.0018651;1.755
-0.0332702;-0.0851026;0.0614095;3.68202;-5.86569;1.0352;-0.0467675;-0.0131381;0.0018651;1.76
-0.0332702;-0.0851026;0.0614095;3.68202;-5.86569;1.0352;-0.0467675;-0.0131381;0.0018651;1.765
-0.0332702;-0.0851026;0.0614095;3.68202;-5.86569;1.0352;-0.0467675;-0.0131381;0.0018651;1.77
-0.0332702;-0.0851026;0.0614095;3.68202;-5.86569;1.0352;-0.0467675;-0.0131381;0.0018651;1.775
-0.0332702;-0.0851026;0.0614095;3.68202;-5.86569;1.0352;-0.0467675;-0.0131381;0.0018651;1.78
-0.0332702;-0.0851026;0.0614095;3.68202;-5.86569;1.0352;-0.0467675;-0.0131381;0.0018651;1.785
-0.0332702;-0.0851026;0.0614095;3.68202;-5.86569;1.0352;-0.0467675;-0.0131381;0.0018651;1.79
-0.0332702;-0.0851026;0.0614095;3.68202;-5.86569;1.0352;-0.0467675;-0.0131381;0.0018651;1.795
-0.0332702;-0.0851026;0.0614095;3.68202;-5.86569;1.0352;-0.0467675;-0.0131381;0.0018651;1.8
-0.0332702;-0.0851026;0.0614095;3.68202;-5.86569;1.0352;-0.0467675;-0.0131381;0.0018651;1.805
-0.0332702;-0.0851026;0.0614095;3.68202;-5.86569;1.0352;-0.0467675;-0.0131381;0.0018651;1.81
-0.0332702;-0.0851026;0.0614095;3.68202;-5.86569;1.0352;-0.0467675;-0.0131381;0.0018651;1.815
-0.0332702;-0.0851026;0.0614095;3.68202;-5.86569;1.0352;-0.0467675;-0.0131381;0.0018651;1.82
-0.0332702;-0.0851026;0.0614095;3.68202;-5.86569;1.0352;-0.0467675;-0.0131381;0.0018651;1.825
-0.0332702;-0.0851026;0.0614095;3.68202;-5.86569;1.0352;-0.0467675;-0.0131381;0.0018651;1.83
-0.0332702;-0.0851026;0.0614095;3.68202;-5.86569;1.0352;-0.0467675;-0.0131381;0.0018651;1.835
-0.0332702;-0.0851026;0.0614095;3.68202;-5.86569;1.0352;-0.0467675;-0.0131381;0.0018651;1.84
-0.0332702;-0.0851026;0.0614095;3.68202;-5.86569;1.0352;-0.0467675;-0.0131381;0.0018651;1.845
-0.0332702;-0.0851026;0.0614095;3.68202;-5.86569;1.0352;-0.0467675;-0.0131381;0.0018651;1.85
-0.0332702;-0.0851026;0.0614095;3.68202;-5.86569;1.0352;-0.0467675;-0.0131381;0.0018651;1.855
-0.0332702;-0.0851026;0.0614095;3.68202;-5.86569;1.0352;-0.0467675;-0.0131381;0.0018651;1.86
-0.0332702;-0.0851026;0.0614095;3.68202;-5.86569;1.0352;-0.0467675;-0.0131381;0.0018651;1.865
-0.0332702;-0.0851026;0.0614095;3.68202;-5.86569;1.0352;-0.0467675;-0.0131381;0.0018651;1.87
-0.0332702;-0.0851026;0.0614095;3.68202;-5.86569;1.0352;-0.0467675;-0.0131381;0.0018651;1.875
-0.0332702;-0.0851026;0.0614095;3.68202;-5.86569;1.0352;-0.0467675;-0.0131381;0.0018651;1.88
-0.0332702;-0.0851026;0.0614095;3.68202;-5.86569;1.0352;-0.0467675;-0.0131381;0.0018651;1.885
-0.0332702;-0.0851026;0.0614095;3.68202;-5.86569;1.0352;-0.0467675;-0.0131381;0.0018651;1.89
-0.0332702;-0.0851026;0.0614095;3.68202;-5.86569;1.0352;-0.0467675;-0.0131381;0.0018651;1.895
-0.0332702;-0.0851026;0.0614095;3.68202;-5.86569;1.0352;-0.0467675;-0.0131381;0.0018651;1.9
-0.0332702;-0.0851026;0.0614095;3.68202;-5.86569;1.0352;-0.0467675;-0.0131381;0.0018651;1.905
-0.0332702;-0.0851026;0.0614095;3.68202;-5.86569;1.0352;-0.0467675;-0.0131381;0.0018651;1.91
-0.0332702;-0.0851026;0.0614095;3.68202;-5.86569;1.0352;-0.0467675;-0.0131381;0.0018651;1.915
-0.0332702;-0.0851026;0.0614095;3.68202;-5.86569;1.0352;-0.0467675;-0.0131381;0.0018651;1.92
-0.0332702;-0.0851026;0.0614095;3.68202;-5.86569;1.0352;-0.0467675;-0.0131381;0.0018651;1.925
-0.0332702;-0.0851026;0.0614095;3.68202;-5.86569;1.0352;-0.0467675;-0.0131381;0.0018651;1.93
-0.0332702;-0.0851026;0.0614095;3.68202;-5.86569;1.0352;-0.0467675;-0.0131381;0.0018651;1.935
-0.0332702;-0.0851026;0.0614095;3.68202;-5.86569;1.0352;-0.0467675;-0.0131381;0.0018651;1.94
-0.0332702;-0.0851026;0.0614095;3.68202;-5.86569;1.0352;-0.0467675;-0.0131381;0.0018651;1.945
-0.0332702;-0.0851026;0.0614095;3.68202;-5.86569;1.0352;-0.0467675;-0.0131381;0.0018651;1.95
-0.0332702;-0.0851026;0.0614095;3.68202;-5.86569;1.0352;-0.0467675;-0.0131381;0.0018651;1.955
-0.0332702;-0.0851026;0.0614095;3.68202;-5.86569;1.0352;-0.0467675;-0.0131381;0.0018651;1.96
-0.0332702;-0.0851026;0.0614095;3.68202;-5.86569;1.0352;-0.0467675;-0.0131381;0.0018651;1.965
-0.0332702;-0.0851026;0.0614095;3.68202;-5.86569;1.0352;-0.0467675;-0.0131381;0.0018651;1.97
-0.0332702;-0.0851026;0.0614095;3.68202;-5.86569;1.0352;-0.0467675;-0.0131381;0.0018651;1.975
-0.0332702;-0.0851026;0.0614095;3.68202;-5.86569;1.0352;-0.0467675;-0.0131381;0.0018651;1.98
-0.0332702;-0.0851026;0.0614095;3.68202;-5.86569;1.0352;-0.0467675;-0.0131381;0.0018651;1.985
-0.0332702;-0.0851026;0.0614095;3.68202;-5.86569;1.0352;-0.0467675;-0.0131381;0.0018651;1.99
-0.0332702;-0.0851026;0.0614095;3.68202;-5.86569;1.0352;-0.0467675;-0.0131381;0.0018651;1.995
-0.0332702;-0.0851026;0.0614095;3.68202;-5.86569;1.0352;-0.0467675;-0.0131381;0.0018651;2
-0.0332702;-0.0851026;0.0614095;3.68202;-5.86569;1.0352;-0.0467675;-0.0131381;0.0018651;2.005
-0.0332702;-0.0851026;0.0614095;3.68202;-5.86569;1.0352;-0.0467675;-0.0131381;0.0018651;2.01
-0.0332702;-0.0851026;0.0614095;3.68202;-5.86569;1.0352;-0.0467675;-0.0131381;0.0018651;2.015
-0.0332702;-0.0851026;0.0614095;3.68202;-5.86569;1.0352;-0.0467675;-0.0131381;0.0018651;2.02
-0.0332702;-0.0851026;0.0614095;3.68202;-5.86569;1.0352;-0.0467675;-0.0131381;0.0018651;2.025
-0.0332702;-0.0851026;0.0614095;3.68202;-5.86569;1.0352;-0.0467675;-0.0131381;0.0018651;2.03
-0.0332702;-0.0851026;0.0614095;3.68202;-5.86569;1.0352;-0.0467675;-0.0131381;0.0018651;2.035
-0.0332702;-0.0851026;0.0614095;3.68202;-5.86569;1.0352;-0.0467675;-0.0131381;0.0018651;2.04
-0.0332702;-0.0851026;0.0614095;3.68202;-5.86569;1.0352;-0.0467675;-0.0131381;0.0018651;2.045
-0.0332702;-0.0851026;0.0614095;3.68202;-5.86569;1.0352;-0.0467675;-0.0131381;0.0018651;2.05
-0.0332702;-0.0851026;0.0614095;3.68202;-5.86569;1.0352;-0.0467675;-0.0131381;0.0018651;2.055
-0.0332702;-0.0851026;0.0614095;3.68202;-5.86569;1.0352;-0.0467675;-0.0131381;0.0018651;2.06
-0.0332702;-0.0851026;0.0614095;3.68202;-5.86569;1.0352;-0.0467675;-0.0131381;0.0018651;2.065
-0.0332702;-0.0851026;0.0614095;3.68202;-5.86569;1.0352;-0.0467675;-0.0131381;0.0018651;2.07
-0.0332702;-0.0851026;0.0614095;3.68202;-5.86569;1.0352;-0.0467675;-0.0131381;0.0018651;2.075
-0.0332702;-0.0851026;0.0614095;3.68202;-5.86569;1.0352;-0.0467675;-0.0131381;0.0018651;2.08
-0.0332702;-0.0851026;0.0614095;3.68202;-5.86569;1.0352;-0.0467675;-0.0131381;0.0018651;2.085
-0.0332702;-0.0851026;0.0614095;3.68202;-5.86569;1.0352;-0.0467675;-0.0131381;0.0018651;2.09
-0.0332702;-0.0851026;0.0614095;3.68202;-5.86569;1.0352;-0.0467675;-0.0131381;0.0018651;2.095
-0.0332702;-0.0851026;0.0614095;3.68202;-5.86569;1.0352;-0.0467675;-0.0131381;0.0018651;2.1
-0.0332702;-0.0851026;0.0614095;3.68202;-5.86569;1.0352;-0.0467675;-0.0131381;0.0018651;2.105
-0.0332702;-0.0851026;0.0614095;3.68202;-5.86569;1.0352;-0.0467675;-0.0131381;0.0018651;2.11
-0.0332702;-0.0851026;0.0614095;3.68202;-5.86569;1.0352;-0.0467675;-0.0131381;0.0018651;2.115
-0.0332702;-0.0851026;0.0614095;3.68202;-5.86569;1.0352;-0.0467675;-0.0131381;0.0018651;2.12
-0.0332702;-0.0851026;0.0614095;3.68202;-5.86569;1.0352;-0.0467675;-0.0131381;0.0018651;2.125
-0.0332702;-0.0851026;0.0614095;3.68202;-5.86569;1.0352;-0.0467675;-0.0131381;0.0018651;2.13
-0.0332702;-0.0851026;0.0614095;3.68202;-5.86569;1.0352;-0.0467675;-0.0131381;0.0018651;2.135
-0.0332702;-0.0851026;0.0614095;3.68202;-5.86569;1.0352;-0.0467675;-0.0131381;0.0018651;2.14
-0.0332702;-0.0851026;0.0614095;3.68202;-5.86569;1.0352;-0.0467675;-0.0131381;0.0018651;2.145
-0.0332702;-0.0851026;0.0614095;3.68202;-5.86569;1.0352;-0.0467675;-0.0131381;0.0018651;2.15
-0.0332702;-0.0851026;0.0614095;3.68202;-5.86569;1.0352;-0.0467675;-0.0131381;0.0018651;2.155
-0.0332702;-0.0851026;0.0614095;3.68202;-5.86569;1.0352;-0.0467675;-0.0131381;0.0018651;2.16
-0.0332702;-0.0851026;0.0614095;3.68202;-5.86569;1.0352;-0.0467675;-0.0131381;0.0018651;2.165
-0.0332702;-0.0851026;0.0614095;3.68202;-5.86569;1.0352;-0.0467675;-0.0131381;0.0018651;2.17
-0.0332702;-0.0851026;0.0614095;3.68202;-5.86569;1.0352;-0.0467675;-0.0131381;0.0018651;2.175
-0.0332702;-0.0851026;0.0614095;3.68202;-5.86569;1.0352;-0.0467675;-0.0131381;0.0018651;2.18
-0.0332702;-0.0851026;0.0614095;3.68202;-5.86569;1.0352;-0.0467675;-0.0131381;0.0018651;2.185
-0.0332702;-0.0851026;0.0614095;3.68202;-5.86569;1.0352;-0.0467675;-0.0131381;0.0018651;2.19
-0.0332702;-0.0851026;0.0614095;3.68202;-5.86569;1.0352;-0.0467675;-0.0131381;0.0018651;2.195
-0.0332702;-0.0851026;0.0614095;3.68202;-5.86569;1.0352;-0.0467675;-0.0131381;0.0018651;2.2
-0.0332702;-0.0851026;0.0614095;3.68202;-5.86569;1.0352;-0.0467675;-0.0131381;0.0018651;2.205
-0.0332702;-0.0851026;0.0614095;3.68202;-5.86569;1.0352;-0.0467675;-0.0131381;0.0018651;2.21
-0.0332702;-0.0851026;0.0614095;3.68202;-5.86569;1.0352;-0.0467675;-0.0131381;0.0018651;2.215
-0.0332702;-0.0851026;0.0614095;3.68202;-5.86569;1.0352;-0.0467675;-0.0131381;0.0018651;2.22
-0.0332702;-0.0851026;0.0614095;3.68202;-5.86569;1.0352;-0.0467675;-0.0131381;0.0018651;2.225
-0.0332702;-0.0851026;0.0614095;3.68202;-5.86569;1.0352;-0.0467675;-0.0131381;0.0018651;2.23
-0.0332702;-0.0851026;0.0614095;3.68202;-5.86569;1.0352;-0.0467675;-0.0131381;0.0018651;2.235
-0.0332702;-0.0851026;0.0614095;3.68202;-5.86569;1.0352;-0.0467675;-0.0131381;0.0018651;2.24
-0.0332702;-0.0851026;0.0614095;3.68202;-5.86569;1.0352;-0.0467675;-0.0131381;0.0018651;2.245
-0.0332702;-0.0851026;0.0614095;3.68202;-5.86569;1.0352;-0.0467675;-0.0131381;0.0018651;2.25
-0.0332702;-0.0851026;0.0614095;3.68202;-5.86569;1.0352;-0.0467675;-0.0131381;0.0018651;2.255
-0.0332702;-0.0851026;0.0614095;3.68202;-5.86569;1.0352;-0.0467675;-0.0131381;0.0018651;2.26
-0.0332702;-0.0851026;0.0614095;3.68202;-5.86569;1.0352;-0.0467675;-0.0131381;0.0018651;2.265
-0.0332702;-0.0851026;0.0614095;3.68202;-5.86569;1.0352;-0.0467675;-0.0131381;0.0018651;2.27
-0.0332702;-0.0851026;0.0614095;3.68202;-5.86569;1.0352;-0.0467675;-0.0131381;0.0018651;2.275
-0.0332702;-0.0851026;0.0614095;3.68202;-5.86569;1.0352;-0.0467675;-0.0131381;0.0018651;2.28
-0.0332702;-0.0851026;0.0614095;3.68202;-5.86569;1.0352;-0.0467675;-0.0131381;0.0018651;2.285
-0.0332702;-0.0851026;0.0614095;3.68202;-5.86569;1.0352;-0.0467675;-0.0131381;0.0018651;2.29
-0.0332702;-0.0851026;0.0614095;3.68202;-5.86569;1.0352;-0.0467675;-0.0131381;0.0018651;2.295
-0.0332702;-0.0851026;0.0614095;3.68202;-5.86569;1.0352;-0.0467675;-0.0131381;0.0018651;2.3
-0.0332702;-0.0851026;0.0614095;3.68202;-5.86569;1.0352;-0.0467675;-0.0131381;0.0018651;2.305
-0.0332702;-0.0851026;0.0614095;3.68202;-5.86569;1.0352;-0.0467675;-0.0131381;0.0018651;2.31
-0.0332702;-0.0851026;0.0614095;3.68202;-5.86569;1.0352;-0.0467675;-0.0131381;0.0018651;2.315
-0.0332702;-0.0851026;0.0614095;3.68202;-5.86569;1.0352;-0.0467675;-0.0131381;0.0018651;2.32
-0.0332702;-0.0851026;0.0614095;3.68202;-5.86569;1.0352;-0.0467675;-0.0131381;0.0018651;2.325
-0.0332702;-0.0851026;0.0614095;3.68202;-5.86569;1.0352;-0.0467675;-0.0131381;0.0018651;2.33
-0.0332702;-0.0851026;0.0614095;3.68202;-5.86569;1.0352;-0.0467675;-0.0131381;0.0018651;2.335
-0.0332702;-0.0851026;0.0614095;3.68202;-5.86569;1.0352;-0.0467675;-0.0131381;0.0018651;2.34
-0.0332702;-0.0851026;0.0614095;3.68202;-5.86569;1.0352;-0.0467675;-0.0131381;0.0018651;2.345
-0.0332702;-0.0851026;0.0614095;3.68202;-5.86569;1.0352;-0.0467675;-0.0131381;0.0018651;2.35
-0.0332702;-0.0851026;0.0614095;3.68202;-5.86569;1.0352;-0.0467675;-0.0131381;0.0018651;2.355
-0.0332702;-0.0851026;0.0614095;3.68202;-5.86569;1.0352;-0.0467675;-0.0131381;0.0018651;2.36
-0.0332702;-0.0851026;0.0614095;3.68202;-5.86569;1.0352;-0.0467675;-0.0131381;0.0018651;2.365
-0.0332702;-0.0851026;0.0614095;3.68202;-5.86569;1.0352;-0.0467675;-0.0131381;0.0018651;2.37
-0.0332702;-0.0851026;0.0614095;3.68202;-5.86569;1.0352;-0.0467675;-0.0131381;0.0018651;2.375
-0.0332702;-0.0851026;0.0614095;3.68202;-5.86569;1.0352;-0.0467675;-0.0131381;0.0018651;2.38
-0.0332702;-0.0851026;0.0614095;3.68202;-5.86569;1.0352;-0.0467675;-0.0131381;0.0018651;2.385
-0.0332702;-0.0851026;0.0614095;3.68202;-5.86569;1.0352;-0.0467675;-0.0131381;0.0018651;2.39
-0.0332702;-0.0851026;0.0614095;3.68202;-5.86569;1.0352;-0.0467675;-0.0131381;0.0018651;2.395
-0.0332702;-0.0851026;0.0614095;3.68202;-5.86569;1.0352;-0.0467675;-0.0131381;0.0018651;2.4
-0.0332702;-0.0851026;0.0614095;3.68202;-5.86569;1.0352;-0.0467675;-0.0131381;0.0018651;2.405
-0.0332702;-0.0851026;0.0614095;3.68202;-5.86569;1.0352;-0.0467675;-0.0131381;0.0018651;2.41
-0.0332702;-0.0851026;0.0614095;3.68202;-5.86569;1.0352;-0.0467675;-0.0131381;0.0018651;2.415
-0.0332702;-0.0851026;0.0614095;3.68202;-5.86569;1.0352;-0.0467675;-0.0131381;0.0018651;2.42
-0.0332702;-0.0851026;0.0614095;3.68202;-5.86569;1.0352;-0.0467675;-0.0131381;0.0018651;2.425
-0.0332702;-0.0851026;0.0614095;3.68202;-5.86569;1.0352;-0.0467675;-0.0131381;0.0018651;2.43
-0.0332702;-0.0851026;0.0614095;3.68202;-5.86569;1.0352;-0.0467675;-0.0131381;0.0018651;2.435
-0.0332702;-0.0851026;0.0614095;3.68202;-5.86569;1.0352;-0.0467675;-0.0131381;0.0018651;2.44
-0.0332702;-0.0851026;0.0614095;3.68202;-5.86569;1.0352;-0.0467675;-0.0131381;0.0018651;2.445
-0.0332702;-0.0851026;0.0614095;3.68202;-5.86569;1.0352;-0.0467675;-0.0131381;0.0018651;2.45
-0.0332702;-0.0851026;0.0614095;3.68202;-5.86569;1.0352;-0.0467675;-0.0131381;0.0018651;2.455
-0.0332702;-0.0851026;0.0614095;3.68202;-5.86569;1.0352;-0.0467675;-0.0131381;0.0018651;2.46
-0.0332702;-0.0851026;0.0614095;3.68202;-5.86569;1.0352;-0.0467675;-0.0131381;0.0018651;2.465
-0.0332702;-0.0851026;0.0614095;3.68202;-5.86569;1.0352;-0.0467675;-0.0131381;0.0018651;2.47
-0.0332702;-0.0851026;0.0614095;3.68202;-5.86569;1.0352;-0.0467675;-0.0131381;0.0018651;2.475
-0.0332702;-0.0851026;0.0614095;3.68202;-5.86569;1.0352;-0.0467675;-0.0131381;0.0018651;2.48
-0.0332702;-0.0851026;0.0614095;3.68202;-5.86569;1.0352;-0.0467675;-0.0131381;0.0018651;2.485
-0.0332702;-0.0851026;0.0614095;3.68202;-5.86569;1.0352;-0.0467675;-0.0131381;0.0018651;2.49
-0.0332702;-0.0851026;0.0614095;3.68202;-5.86569;1.0352;-0.0467675;-0.0131381;0.0018651;2.495
-0.0332702;-0.0851026;0.0614095;3.68202;-5.86569;1.0352;-0.0467675;-0.0131381;0.0018651;2.5
-0.0332702;-0.0851026;0.0614095;3.68202;-5.86569;1.0352;-0.0467675;-0.0131381;0.0018651;2.505
-0.0332702;-0.0851026;0.0614095;3.68202;-5.86569;1.0352;-0.0467675;-0.0131381;0.0018651;2.51
-0.0332702;-0.0851026;0.0614095;3.68202;-5.86569;1.0352;-0.0467675;-0.0131381;0.0018651;2.515
-0.0332702;-0.0851026;0.0614095;3.68202;-5.86569;1.0352;-0.0467675;-0.0131381;0.0018651;2.52
-0.0332702;-0.0851026;0.0614095;3.68202;-5.86569;1.0352;-0.0467675;-0.0131381;0.0018651;2.525
-0.0332702;-0.0851026;0.0614095;3.68202;-5.86569;1.0352;-0.0467675;-0.0131381;0.0018651;2.53
-0.0332702;-0.0851026;0.0614095;3.68202;-5.86569;1.0352;-0.0467675;-0.0131381;0.0018651;2.535
-0.0332702;-0.0851026;0.0614095;3.68202;-5.86569;1.0352;-0.0467675;-0.0131381;0.0018651;2.54
-0.0332702;-0.0851026;0.0614095;3.68202;-5.86569;1.0352;-0.0467675;-0.0131381;0.0018651;2.545
-0.0332702;-0.0851026;0.0614095;3.68202;-5.86569;1.0352;-0.0467675;-0.0131381;0.0018651;2.55
-0.158274;1.24517;-0.211048;-0.448373;0.322671;1.03442;-0.0157506;-0.0928334;0.0449447;2.555
-0.158274;1.24517;-0.211048;-0.448373;0.322671;1.03442;-0.0157506;-0.0928334;0.0449447;2.56
-0.158274;1.24517;-0.211048;-0.448373;0.322671;1.03442;-0.0157506;-0.0928334;0.0449447;2.565
-0.158274;1.24517;-0.211048;-0.448373;0.322671;1.03442;-0.0157506;-0.0928334;0.0449447;2.57
-0.237099;1.10138;-0.220404;-0.449175;0.320861;1.0351;-0.0195573;-0.0809214;0.0404508;2.575
-0.237099;1.10138;-0.220404;-0.449175;0.320861;1.0351;-0.0195573;-0.0809214;0.0404508;2.58
-0.118399;0.62778;-0.299583;-0.449978;0.319174;1.03562;-0.025512;-0.076253;0.0335441;2.585
-0.118399;0.62778;-0.299583;-0.449978;0.319174;1.03562;-0.025512;-0.076253;0.0335441;2.59
-0.118399;0.62778;-0.299583;-0.449978;0.319174;1.03562;-0.025512;-0.076253;0.0335441;2.595
-0.118399;0.62778;-0.299583;-0.449978;0.319174;1.03562;-0.025512;-0.076253;0.0335441;2.6
-0.118399;0.62778;-0.299583;-0.449978;0.319174;1.03562;-0.025512;-0.076253;0.0335441;2.605
-0.118399;0.62778;-0.299583;-0.449978;0.319174;1.03562;-0.025512;-0.076253;0.0335441;2.61
0.114447;0.537847;-0.319078;-0.450877;0.317515;1.03603;-0.0315146;-0.0772072;0.0259433;2.615
0.114447;0.537847;-0.319078;-0.450877;0.317515;1.03603;-0.0315146;-0.0772072;0.0259433;2.62
0.114447;0.537847;-0.319078;-0.450877;0.317515;1.03603;-0.0315146;-0.0772072;0.0259433;2.625
0.114447;0.537847;-0.319078;-0.450877;0.317515;1.03603;-0.0315146;-0.0772072;0.0259433;2.63
0.271697;0.562446;-0.253501;-0.451816;0.316163;1.03633;-0.0371024;-0.0728103;0.019584;2.635
0.48023;0.266866;-0.0463696;-0.452739;0.315069;1.03652;-0.0386762;-0.0672059;0.0173665;2.64
0.48023;0.266866;-0.0463696;-0.452739;0.315069;1.03652;-0.0386762;-0.0672059;0.0173665;2.645
0.321759;-0.0358165;-0.060207;-0.453632;0.314007;1.03664;-0.0407631;-0.0680279;0.0146968;2.65
0.321759;-0.0358165;-0.060207;-0.453632;0.314007;1.03664;-0.0407631;-0.0680279;0.0146968;2.655
0.321759;-0.0358165;-0.060207;-0.453632;0.314007;1.03664;-0.0407631;-0.0680279;0.0146968;2.66
0.321759;-0.0358165;-0.060207;-0.453632;0.314007;1.03664;-0.0407631;-0.0680279;0.0146968;2.665
0.321759;-0.0358165;-0.060207;-0.453632;0.314007;1.03664;-0.0407631;-0.0680279;0.0146968;2.67
0.321759;-0.0358165;-0.060207;-0.453632;0.314007;1.03664;-0.0407631;-0.0680279;0.0146968;2.675
0.321759;-0.0358165;-0.060207;-0.453632;0.314007;1.03664;-0.0407631;-0.0680279;0.0146968;2.68
0.320751;0.172899;-0.143282;-0.454519;0.312918;1.03668;-0.0448152;-0.0663283;0.00961976;2.685
0.117318;0.239445;-0.244294;-0.455562;0.31199;1.03659;-0.0514491;-0.0594889;0.00159897;2.69
0.117318;0.239445;-0.244294;-0.455562;0.31199;1.03659;-0.0514491;-0.0594889;0.00159897;2.695
0.262734;0.148675;-0.226699;-0.456608;0.311193;1.03638;-0.0525931;-0.052748;-0.00644876;2.7
0.262734;0.148675;-0.226699;-0.456608;0.311193;1.03638;-0.0525931;-0.052748;-0.00644876;2.705
0.262734;0.148675;-0.226699;-0.456608;0.311193;1.03638;-0.0525931;-0.052748;-0.00644876;2.71
0.262734;0.148675;-0.226699;-0.456608;0.311193;1.03638;-0.0525931;-0.052748;-0.00644876;2.715
0.262734;0.148675;-0.226699;-0.456608;0.311193;1.03638;-0.0525931;-0.052748;-0.00644876;2.72
0.262734;0.148675;-0.226699;-0.456608;0.311193;1.03638;-0.0525931;-0.052748;-0.00644876;2.725
0.409523;0.132924;-0.215714;-0.457516;0.310497;1.03606;-0.0474397;-0.0484853;-0.0155917;2.73
0.361856;0.11268;-0.0734507;-0.458138;0.309932;1.03568;-0.0398185;-0.0447336;-0.0231163;2.735
0.361856;0.11268;-0.0734507;-0.458138;0.309932;1.03568;-0.0398185;-0.0447336;-0.0231163;2.74
0.361856;0.11268;-0.0734507;-0.458138;0.309932;1.03568;-0.0398185;-0.0447336;-0.0231163;2.745
0.361856;0.11268;-0.0734507;-0.458138;0.309932;1.03568;-0.0398185;-0.0447336;-0.0231163;2.75
0.361856;0.11268;-0.0734507;-0.458138;0.309932;1.03568;-0.0398185;-0.0447336;-0.0231163;2.755
0.361856;0.11268;-0.0734507;-0.458138;0.309932;1.03568;-0.0398185;-0.0447336;-0.0231163;2.76
0.404144;0.140274;0.0322546;-0.458668;0.30958;1.03531;-0.0329224;-0.0361688;-0.025195;2.765
0.404144;0.140274;0.0322546;-0.458668;0.30958;1.03531;-0.0329224;-0.0361688;-0.025195;2.77
0.404144;0.140274;0.0322546;-0.458668;0.30958;1.03531;-0.0329224;-0.0361688;-0.025195;2.775
0.512738;0.169106;0.263916;-0.458971;0.309423;1.03505;-0.0243754;-0.0250208;-0.0190853;2.78
0.512738;0.169106;0.263916;-0.458971;0.309423;1.03505;-0.0243754;-0.0250208;-0.0190853;2.785
0.512738;0.169106;0.263916;-0.458971;0.309423;1.03505;-0.0243754;-0.0250208;-0.0190853;2.79
0.512738;0.169106;0.263916;-0.458971;0.309423;1.03505;-0.0243754;-0.0250208;-0.0190853;2.795
0.394083;0.184101;0.365035;-0.459312;0.309466;1.03495;-0.0184381;-0.0147589;-0.00938167;2.8
0.328119;0.270243;0.285757;-0.459588;0.309515;1.03498;-0.0108262;-0.00771472;-0.00188098;2.805
0.328119;0.270243;0.285757;-0.459588;0.309515;1.03498;-0.0108262;-0.00771472;-0.00188098;2.81
0.328119;0.270243;0.285757;-0.459588;0.309515;1.03498;-0.0108262;-0.00771472;-0.00188098;2.815
0.328119;0.270243;0.285757;-0.459588;0.309515;1.03498;-0.0108262;-0.00771472;-0.00188098;2.82
0.328119;0.270243;0.285757;-0.459588;0.309515;1.03498;-0.0108262;-0.00771472;-0.00188098;2.825
0.328119;0.270243;0.285757;-0.459588;0.309515;1.03498;-0.0108262;-0.00771472;-0.00188098;2.83
0.180483;0.282462;0.0532242;-0.459914;0.30952;1.0351;-0.00856349;-0.00271221;0.00183944;2.835
0.171936;0.237493;-0.269916;-0.460286;0.30953;1.03515;-0.00681122;0.00590512;0.00204089;2.84
0.171936;0.237493;-0.269916;-0.460286;0.30953;1.03515;-0.00681122;0.00590512;0.00204089;2.845
0.305389;0.0850544;-0.262506;-0.460302;0.309445;1.03508;-0.000559972;0.00633563;-0.0017407;2.85
0.305389;0.0850544;-0.262506;-0.460302;0.309445;1.03508;-0.000559972;0.00633563;-0.0017407;2.855
0.305389;0.0850544;-0.262506;-0.460302;0.309445;1.03508;-0.000559972;0.00633563;-0.0017407;2.86
0.305389;0.0850544;-0.262506;-0.460302;0.309445;1.03508;-0.000559972;0.00633563;-0.0017407;2.865
0.305389;0.0850544;-0.262506;-0.460302;0.309445;1.03508;-0.000559972;0.00633563;-0.0017407;2.87
0.305389;0.0850544;-0.262506;-0.460302;0.309445;1.03508;-0.000559972;0.00633563;-0.0017407;2.875
0.305389;0.0850544;-0.262506;-0.460302;0.309445;1.03508;-0.000559972;0.00633563;-0.0017407;2.88
0.327587;-0.00999722;-0.432617;-0.46029;0.309272;1.03477;0.00252198;0.00138639;-0.0146047;2.885
0.0795753;0.0702602;-0.00515325;-0.460402;0.308881;1.03429;0.0012061;-0.00557281;-0.0243894;2.89
0.0795753;0.0702602;-0.00515325;-0.460402;0.308881;1.03429;0.0012061;-0.00557281;-0.0243894;2.895
0.0795753;0.0702602;-0.00515325;-0.460402;0.308881;1.03429;0.0012061;-0.00557281;-0.0243894;2.9
0.0795753;0.0702602;-0.00515325;-0.460402;0.308881;1.03429;0.0012061;-0.00557281;-0.0243894;2.905
0.0795753;0.0702602;-0.00515325;-0.460402;0.308881;1.03429;0.0012061;-0.00557281;-0.0243894;2.91
0.132064;-0.0138721;0.187975;-0.460606;0.308586;1.03382;0.00141957;-0.0069745;-0.0278217;2.915
0.132064;-0.0138721;0.187975;-0.460606;0.308586;1.03382;0.00141957;-0.0069745;-0.0278217;2.92
0.132064;-0.0138721;0.187975;-0.460606;0.308586;1.03382;0.00141957;-0.0069745;-0.0278217;2.925
0.132064;-0.0138721;0.187975;-0.460606;0.308586;1.03382;0.00141957;-0.0069745;-0.0278217;2.93
-0.135662;-0.390741;0.474658;-0.46047;0.308385;1.03382;0.00112494;-0.0123891;-0.0138457;2.935
-0.135662;-0.390741;0.474658;-0.46047;0.308385;1.03382;0.00112494;-0.0123891;-0.0138457;2.94
-0.135662;-0.390741;0.474658;-0.46047;0.308385;1.03382;0.00112494;-0.0123891;-0.0138457;2.945
-0.0210616;-0.357222;0.405334;-0.460054;0.308322;1.03384;0.00472914;-0.0199623;-0.004078;2.95
-0.0638421;-0.21423;0.268594;-0.459797;0.30812;1.03384;0.0116787;-0.0194757;0.00603914;2.955
-0.0638421;-0.21423;0.268594;-0.459797;0.30812;1.03384;0.0116787;-0.0194757;0.00603914;2.96
-0.0638421;-0.21423;0.268594;-0.459797;0.30812;1.03384;0.0116787;-0.0194757;0.00603914;2.965
-0.0638421;-0.21423;0.268594;-0.459797;0.30812;1.03384;0.0116787;-0.0194757;0.00603914;2.97
-0.0638421;-0.21423;0.268594;-0.459797;0.30812;1.03384;0.0116787;-0.0194757;0.00603914;2.975
-0.0638421;-0.21423;0.268594;-0.459797;0.30812;1.03384;0.0116787;-0.0194757;0.00603914;2.98
0.0183456;0.0264973;-0.0482589;-0.459527;0.30794;1.03386;0.0165062;-0.0158067;0.00409655;2.985
0.0418488;0.0289355;-0.00778949;-0.459178;0.307942;1.03387;0.0191006;-0.00719589;0.00425834;2.99
0.0418488;0.0289355;-0.00778949;-0.459178;0.307942;1.03387;0.0191006;-0.00719589;0.00425834;2.995
0.0896397;-0.0888373;-0.0485562;-0.458829;0.308049;1.03389;0.0221101;-0.00129772;0.00425939;3
0.0896397;-0.0888373;-0.0485562;-0.458829;0.308049;1.03389;0.0221101;-0.00129772;0.00425939;3.005
0.0896397;-0.0888373;-0.0485562;-0.458829;0.308049;1.03389;0.0221101;-0.00129772;0.00425939;3.01
0.0896397;-0.0888373;-0.0485562;-0.458829;0.308049;1.03389;0.0221101;-0.00129772;0.00425939;3.015
0.0896397;-0.0888373;-0.0485562;-0.458829;0.308049;1.03389;0.0221101;-0.00129772;0.00425939;3.02
0.0896397;-0.0888373;-0.0485562;-0.458829;0.308049;1.03389;0.0221101;-0.00129772;0.00425939;3.025
0.0896397;-0.0888373;-0.0485562;-0.458829;0.308049;1.03389;0.0221101;-0.00129772;0.00425939;3.03
0.00985637;-0.0310048;-0.23269;-0.458518;0.308012;1.03388;0.0230139;-0.00167299;-0.000846898;3.035
0.232262;0.0716376;-0.347962;-0.458208;0.307884;1.0338;0.026081;-0.00189213;-0.00880702;3.04
0.232262;0.0716376;-0.347962;-0.458208;0.307884;1.0338;0.026081;-0.00189213;-0.00880702;3.045
0.232262;0.0716376;-0.347962;-0.458208;0.307884;1.0338;0.026081;-0.00189213;-0.00880702;3.05
0.232262;0.0716376;-0.347962;-0.458208;0.307884;1.0338;0.026081;-0.00189213;-0.00880702;3.055
0.232262;0.0716376;-0.347962;-0.458208;0.307884;1.0338;0.026081;-0.00189213;-0.00880702;3.06
0.236968;-0.030338;-0.343266;-0.45784;0.307691;1.0337;0.027153;-0.00378394;-0.0155243;3.065
0.236968;-0.030338;-0.343266;-0.45784;0.307691;1.0337;0.027153;-0.00378394;-0.0155243;3.07
0.236968;-0.030338;-0.343266;-0.45784;0.307691;1.0337;0.027153;-0.00378394;-0.0155243;3.075
0.236968;-0.030338;-0.343266;-0.45784;0.307691;1.0337;0.027153;-0.00378394;-0.0155243;3.08
0.493725;-0.379076;-0.34465;-0.457333;0.307337;1.03354;0.0337075;-0.0126188;-0.0218879;3.085
0.414411;-0.779871;-0.321658;-0.456698;0.306748;1.0333;0.0402404;-0.028608;-0.0270068;3.09
0.414411;-0.779871;-0.321658;-0.456698;0.306748;1.0333;0.0402404;-0.028608;-0.0270068;3.095
0.366905;-0.939836;-0.358369;-0.456046;0.305948;1.03296;0.0441905;-0.0442864;-0.0323163;3.1
0.366905;-0.939836;-0.358369;-0.456046;0.305948;1.03296;0.0441905;-0.0442864;-0.0323163;3.105
0.366905;-0.939836;-0.358369;-0.456046;0.305948;1.03296;0.0441905;-0.0442864;-0.0323163;3.11
0.366905;-0.939836;-0.358369;-0.456046;0.305948;1.03296;0.0441905;-0.0442864;-0.0323163;3.115
0.366905;-0.939836;-0.358369;-0.456046;0.305948;1.03296;0.0441905;-0.0442864;-0.0323163;3.12
0.366905;-0.939836;-0.358369;-0.456046;0.305948;1.03296;0.0441905;-0.0442864;-0.0323163;3.125
0.366905;-0.939836;-0.358369;-0.456046;0.305948;1.03296;0.0441905;-0.0442864;-0.0323163;3.13
0.149269;-0.77912;-0.593751;-0.455598;0.305039;1.03241;0.039797;-0.0526363;-0.0423181;3.135
-0.0661918;-0.694518;-0.473055;-0.45549;0.304081;1.03165;0.0304147;-0.0599099;-0.0543837;3.14
-0.0661918;-0.694518;-0.473055;-0.45549;0.304081;1.03165;0.0304147;-0.0599099;-0.0543837;3.145
-0.0956538;-0.93153;-0.385897;-0.455739;0.302901;1.03068;0.0190403;-0.0737056;-0.0664781;3.15
-0.0956538;-0.93153;-0.385897;-0.455739;0.302901;1.03068;0.0190403;-0.0737056;-0.0664781;3.155
-0.0956538;-0.93153;-0.385897;-0.455739;0.302901;1.03068;0.0190403;-0.0737056;-0.0664781;3.16
-0.0956538;-0.93153;-0.385897;-0.455739;0.302901;1.03068;0.0190403;-0.0737056;-0.0664781;3.165
0.447926;-1.11852;-0.203609;-0.455769;0.301393;1.02965;0.0236783;-0.0936005;-0.0723808;3.17
0.447926;-1.11852;-0.203609;-0.455769;0.301393;1.02965;0.0236783;-0.0936005;-0.0723808;3.175
0.447926;-1.11852;-0.203609;-0.455769;0.301393;1.02965;0.0236783;-0.0936005;-0.0723808;3.18
0.418191;-0.805822;0.0534968;-0.455411;0.299854;1.02872;0.0299403;-0.104063;-0.0692913;3.185
0.418191;-0.805822;0.0534968;-0.455411;0.299854;1.02872;0.0299403;-0.104063;-0.0692913;3.19
0.418191;-0.805822;0.0534968;-0.455411;0.299854;1.02872;0.0299403;-0.104063;-0.0692913;3.195
0.418191;-0.805822;0.0534968;-0.455411;0.299854;1.02872;0.0299403;-0.104063;-0.0692913;3.2
0.418191;-0.805822;0.0534968;-0.455411;0.299854;1.02872;0.0299403;-0.104063;-0.0692913;3.205
0.418191;-0.805822;0.0534968;-0.455411;0.299854;1.02872;0.0299403;-0.104063;-0.0692913;3.21
0.647793;-1.03095;0.265793;-0.454641;0.29852;1.02804;0.045011;-0.112079;-0.0561862;3.215
0.647793;-1.03095;0.265793;-0.454641;0.29852;1.02804;0.045011;-0.112079;-0.0561862;3.22
0.647793;-1.03095;0.265793;-0.454641;0.29852;1.02804;0.045011;-0.112079;-0.0561862;3.225
0.724748;-1.11128;0.482242;-0.453489;0.297484;1.02771;0.0612476;-0.114152;-0.0341317;3.23
0.724748;-1.11128;0.482242;-0.453489;0.297484;1.02771;0.0612476;-0.114152;-0.0341317;3.235
0.724748;-1.11128;0.482242;-0.453489;0.297484;1.02771;0.0612476;-0.114152;-0.0341317;3.24
0.724748;-1.11128;0.482242;-0.453489;0.297484;1.02771;0.0612476;-0.114152;-0.0341317;3.245
0.546346;-0.787078;0.516467;-0.452192;0.296413;1.02766;0.074915;-0.115196;-0.0148502;3.25
0.669017;-0.420755;0.600102;-0.450897;0.294868;1.0278;0.0862696;-0.117416;0.00217814;3.255
0.669017;-0.420755;0.600102;-0.450897;0.294868;1.0278;0.0862696;-0.117416;0.00217814;3.26
0.669017;-0.420755;0.600102;-0.450897;0.294868;1.0278;0.0862696;-0.117416;0.00217814;3.265
0.669017;-0.420755;0.600102;-0.450897;0.294868;1.0278;0.0862696;-0.117416;0.00217814;3.27
0.669017;-0.420755;0.600102;-0.450897;0.294868;1.0278;0.0862696;-0.117416;0.00217814;3.275
0.669017;-0.420755;0.600102;-0.450897;0.294868;1.0278;0.0862696;-0.117416;0.00217814;3.28
0.330113;-0.21496;0.643652;-0.449629;0.292522;1.02814;0.0877703;-0.133238;0.0154805;3.285
0.535197;-0.503118;0.642122;-0.448098;0.289074;1.02858;0.0947131;-0.165029;0.0263378;3.29
0.535197;-0.503118;0.642122;-0.448098;0.289074;1.02858;0.0947131;-0.165029;0.0263378;3.295
0.535197;-0.503118;0.642122;-0.448098;0.289074;1.02858;0.0947131;-0.165029;0.0263378;3.3
0.535197;-0.503118;0.642122;-0.448098;0.289074;1.02858;0.0947131;-0.165029;0.0263378;3.305
0.535197;-0.503118;0.642122;-0.448098;0.289074;1.02858;0.0947131;-0.165029;0.0263378;3.31
0.688783;-0.390974;0.641402;-0.445901;0.284881;1.02904;0.109111;-0.192851;0.0376274;3.315
0.688783;-0.390974;0.641402;-0.445901;0.284881;1.02904;0.109111;-0.192851;0.0376274;3.32
0.688783;-0.390974;0.641402;-0.445901;0.284881;1.02904;0.109111;-0.192851;0.0376274;3.325
0.688783;-0.390974;0.641402;-0.445901;0.284881;1.02904;0.109111;-0.192851;0.0376274;3.33
0.469263;-0.624709;0.287404;-0.443053;0.280449;1.02946;0.12639;-0.21934;0.0425384;3.335
0.820487;-0.731596;0.191859;-0.439945;0.275982;1.02978;0.151362;-0.242907;0.0428686;3.34
0.820487;-0.731596;0.191859;-0.439945;0.275982;1.02978;0.151362;-0.242907;0.0428686;3.345
0.820487;-0.731596;0.191859;-0.439945;0.275982;1.02978;0.151362;-0.242907;0.0428686;3.35
0.820487;-0.731596;0.191859;-0.439945;0.275982;1.02978;0.151362;-0.242907;0.0428686;3.355
0.820487;-0.731596;0.191859;-0.439945;0.275982;1.02978;0.151362;-0.242907;0.0428686;3.36
0.466381;-0.626579;-0.0694289;-0.436797;0.271627;1.02994;0.169178;-0.258039;0.0343455;3.365
0.466381;-0.626579;-0.0694289;-0.436797;0.271627;1.02994;0.169178;-0.258039;0.0343455;3.37
0.466381;-0.626579;-0.0694289;-0.436797;0.271627;1.02994;0.169178;-0.258039;0.0343455;3.375
0.466381;-0.626579;-0.0694289;-0.436797;0.271627;1.02994;0.169178;-0.258039;0.0343455;3.38
0.583409;-0.54413;-0.371008;-0.4335;0.267495;1.02987;0.188713;-0.26164;0.018613;3.385
0.72329;-0.432136;-0.480739;-0.430044;0.263626;1.02958;0.210795;-0.255459;0.00463072;3.39
0.72329;-0.432136;-0.480739;-0.430044;0.263626;1.02958;0.210795;-0.255459;0.00463072;3.395
0.801724;-0.487849;-0.517196;-0.426394;0.259905;1.02902;0.230424;-0.25211;-0.00940646;3.4
0.801724;-0.487849;-0.517196;-0.426394;0.259905;1.02902;0.230424;-0.25211;-0.00940646;3.405
0.801724;-0.487849;-0.517196;-0.426394;0.259905;1.02902;0.230424;-0.25211;-0.00940646;3.41
0.801724;-0.487849;-0.517196;-0.426394;0.259905;1.02902;0.230424;-0.25211;-0.00940646;3.415
0.801724;-0.487849;-0.517196;-0.426394;0.259905;1.02902;0.230424;-0.25211;-0.00940646;3.42
0.801724;-0.487849;-0.517196;-0.426394;0.259905;1.02902;0.230424;-0.25211;-0.00940646;3.425
0.801724;-0.487849;-0.517196;-0.426394;0.259905;1.02902;0.230424;-0.25211;-0.00940646;3.43
0.732329;-0.704183;-0.571542;-0.422637;0.256156;1.02825;0.245118;-0.254593;-0.023528;3.435
0.842784;-0.763438;-0.645386;-0.418852;0.252282;1.02738;0.252423;-0.260814;-0.0373752;3.44
0.842784;-0.763438;-0.645386;-0.418852;0.252282;1.02738;0.252423;-0.260814;-0.0373752;3.445
0.890242;-0.912657;-0.668629;-0.415013;0.248332;1.02646;0.25757;-0.269026;-0.0493672;3.45
0.890242;-0.912657;-0.668629;-0.415013;0.248332;1.02646;0.25757;-0.269026;-0.0493672;3.455
0.890242;-0.912657;-0.668629;-0.415013;0.248332;1.02646;0.25757;-0.269026;-0.0493672;3.46
0.890242;-0.912657;-0.668629;-0.415013;0.248332;1.02646;0.25757;-0.269026;-0.0493672;3.465
0.890242;-0.912657;-0.668629;-0.415013;0.248332;1.02646;0.25757;-0.269026;-0.0493672;3.47
0.890242;-0.912657;-0.668629;-0.415013;0.248332;1.02646;0.25757;-0.269026;-0.0493672;3.475
0.914858;-0.793212;-0.513331;-0.411203;0.244182;1.02552;0.262916;-0.278637;-0.0572429;3.48
1.01605;-0.730066;-0.292616;-0.407408;0.239857;1.02462;0.267323;-0.287232;-0.0592899;3.485
1.01605;-0.730066;-0.292616;-0.407408;0.239857;1.02462;0.267323;-0.287232;-0.0592899;3.49
1.01605;-0.730066;-0.292616;-0.407408;0.239857;1.02462;0.267323;-0.287232;-0.0592899;3.495
1.01605;-0.730066;-0.292616;-0.407408;0.239857;1.02462;0.267323;-0.287232;-0.0592899;3.5
1.01605;-0.730066;-0.292616;-0.407408;0.239857;1.02462;0.267323;-0.287232;-0.0592899;3.505
1.01605;-0.730066;-0.292616;-0.407408;0.239857;1.02462;0.267323;-0.287232;-0.0592899;3.51
0.908052;-0.885912;-0.154072;-0.403562;0.23519;1.02382;0.271312;-0.301846;-0.0581482;3.515
0.908052;-0.885912;-0.154072;-0.403562;0.23519;1.02382;0.271312;-0.301846;-0.0581482;3.52
0.908052;-0.885912;-0.154072;-0.403562;0.23519;1.02382;0.271312;-0.301846;-0.0581482;3.525
0.908052;-0.885912;-0.154072;-0.403562;0.23519;1.02382;0.271312;-0.301846;-0.0581482;3.53
0.966531;-0.842385;-0.0801744;-0.399672;0.230129;1.02308;0.275591;-0.318052;-0.0557556;3.535
0.840047;-0.687219;-0.0860183;-0.395499;0.224712;1.02238;0.280528;-0.331255;-0.054289;3.54
0.840047;-0.687219;-0.0860183;-0.395499;0.224712;1.02238;0.280528;-0.331255;-0.054289;3.545
0.824567;-0.740869;-0.200856;-0.391214;0.21893;1.02161;0.286374;-0.347108;-0.0563679;3.55
0.824567;-0.740869;-0.200856;-0.391214;0.21893;1.02161;0.286374;-0.347108;-0.0563679;3.555
0.824567;-0.740869;-0.200856;-0.391214;0.21893;1.02161;0.286374;-0.347108;-0.0563679;3.56
0.824567;-0.740869;-0.200856;-0.391214;0.21893;1.02161;0.286374;-0.347108;-0.0563679;3.565
0.824567;-0.740869;-0.200856;-0.391214;0.21893;1.02161;0.286374;-0.347108;-0.0563679;3.57
0.824567;-0.740869;-0.200856;-0.391214;0.21893;1.02161;0.286374;-0.347108;-0.0563679;3.575
0.890049;-0.84712;-0.160444;-0.386892;0.212887;1.02084;0.293442;-0.363884;-0.0581081;3.58
0.890049;-0.84712;-0.160444;-0.386892;0.212887;1.02084;0.293442;-0.363884;-0.0581081;3.585
0.890049;-0.84712;-0.160444;-0.386892;0.212887;1.02084;0.293442;-0.363884;-0.0581081;3.59
0.890049;-0.84712;-0.160444;-0.386892;0.212887;1.02084;0.293442;-0.363884;-0.0581081;3.595
0.874533;-0.613616;-0.207553;-0.382459;0.206479;1.0201;0.301983;-0.376665;-0.0606515;3.6
0.773659;-1.15484;-0.181129;-0.377769;0.19992;1.0194;0.310779;-0.396988;-0.0598875;3.605
0.773659;-1.15484;-0.181129;-0.377769;0.19992;1.0194;0.310779;-0.396988;-0.0598875;3.61
0.773659;-1.15484;-0.181129;-0.377769;0.19992;1.0194;0.310779;-0.396988;-0.0598875;3.615
0.773659;-1.15484;-0.181129;-0.377769;0.19992;1.0194;0.310779;-0.396988;-0.0598875;3.62
0.773659;-1.15484;-0.181129;-0.377769;0.19992;1.0194;0.310779;-0.396988;-0.0598875;3.625
0.717316;-0.722436;-0.262878;-0.372752;0.192907;1.01867;0.322811;-0.412527;-0.0614145;3.63
0.717316;-0.722436;-0.262878;-0.372752;0.192907;1.01867;0.322811;-0.412527;-0.0614145;3.635
1.10856;-0.655004;-0.105299;-0.367133;0.185553;1.01785;0.345615;-0.428928;-0.0612903;3.64
1.10856;-0.655004;-0.105299;-0.367133;0.185553;1.01785;0.345615;-0.428928;-0.0612903;3.645
1.10856;-0.655004;-0.105299;-0.367133;0.185553;1.01785;0.345615;-0.428928;-0.0612903;3.65
1.10856;-0.655004;-0.105299;-0.367133;0.185553;1.01785;0.345615;-0.428928;-0.0612903;3.655
1.10856;-0.655004;-0.105299;-0.367133;0.185553;1.01785;0.345615;-0.428928;-0.0612903;3.66
1.20201;-0.594975;-0.0429616;-0.361054;0.177812;1.01697;0.371233;-0.447046;-0.0597765;3.665
1.20201;-0.594975;-0.0429616;-0.361054;0.177812;1.01697;0.371233;-0.447046;-0.0597765;3.67
1.20201;-0.594975;-0.0429616;-0.361054;0.177812;1.01697;0.371233;-0.447046;-0.0597765;3.675
1.20201;-0.594975;-0.0429616;-0.361054;0.177812;1.01697;0.371233;-0.447046;-0.0597765;3.68
1.1144;-0.564836;-0.124495;-0.354453;0.169753;1.01599;0.39716;-0.465594;-0.0620884;3.685
0.993609;-0.667382;-0.0824125;-0.347394;0.161395;1.01485;0.419674;-0.483021;-0.0645834;3.69
0.993609;-0.667382;-0.0824125;-0.347394;0.161395;1.01485;0.419674;-0.483021;-0.0645834;3.695
1.1007;-0.914748;0.0111677;-0.339885;0.152949;1.01371;0.442703;-0.499611;-0.0647842;3.7
1.1007;-0.914748;0.0111677;-0.339885;0.152949;1.01371;0.442703;-0.499611;-0.0647842;3.705
1.1007;-0.914748;0.0111677;-0.339885;0.152949;1.01371;0.442703;-0.499611;-0.0647842;3.71
1.1007;-0.914748;0.0111677;-0.339885;0.152949;1.01371;0.442703;-0.499611;-0.0647842;3.715
1.1007;-0.914748;0.0111677;-0.339885;0.152949;1.01371;0.442703;-0.499611;-0.0647842;3.72
1.1007;-0.914748;0.0111677;-0.339885;0.152949;1.01371;0.442703;-0.499611;-0.0647842;3.725
1.1007;-0.914748;0.0111677;-0.339885;0.152949;1.01371;0.442703;-0.499611;-0.0647842;3.73
1.12485;-0.822906;-0.0417452;-0.331836;0.144284;1.0126;0.467421;-0.515208;-0.0668705;3.735
0.953601;-0.836636;-0.206713;-0.323122;0.135509;1.0114;0.49345;-0.534793;-0.0722276;3.74
0.953601;-0.836636;-0.206713;-0.323122;0.135509;1.0114;0.49345;-0.534793;-0.0722276;3.745
1.61244;-0.707292;0.246726;-0.313842;0.126311;1.01014;0.528181;-0.555604;-0.0753732;3.75
1.61244;-0.707292;0.246726;-0.313842;0.126311;1.01014;0.528181;-0.555604;-0.0753732;3.755
1.61244;-0.707292;0.246726;-0.313842;0.126311;1.01014;0.528181;-0.555604;-0.0753732;3.76
1.61244;-0.707292;0.246726;-0.313842;0.126311;1.01014;0.528181;-0.555604;-0.0753732;3.765
1.61244;-0.707292;0.246726;-0.313842;0.126311;1.01014;0.528181;-0.555604;-0.0753732;3.77
1.61244;-0.707292;0.246726;-0.313842;0.126311;1.01014;0.528181;-0.555604;-0.0753732;3.775
1.48297;0.368044;1.30363;-0.304184;0.11663;1.00888;0.546276;-0.556776;-0.0629378;3.78
0.946778;-2.09071;1.85109;-0.294034;0.106503;1.00794;0.563197;-0.608007;-0.0277866;3.785
0.946778;-2.09071;1.85109;-0.294034;0.106503;1.00794;0.563197;-0.608007;-0.0277866;3.79
0.946778;-2.09071;1.85109;-0.294034;0.106503;1.00794;0.563197;-0.608007;-0.0277866;3.795
0.946778;-2.09071;1.85109;-0.294034;0.106503;1.00794;0.563197;-0.608007;-0.0277866;3.8
0.946778;-2.09071;1.85109;-0.294034;0.106503;1.00794;0.563197;-0.608007;-0.0277866;3.805
0.946778;-2.09071;1.85109;-0.294034;0.106503;1.00794;0.563197;-0.608007;-0.0277866;3.81
1.96613;-1.78464;1.82202;-0.284004;0.0955869;1.00762;0.589495;-0.655015;0.00304378;3.815
1.96613;-1.78464;1.82202;-0.284004;0.0955869;1.00762;0.589495;-0.655015;0.00304378;3.82
1.96613;-1.78464;1.82202;-0.284004;0.0955869;1.00762;0.589495;-0.655015;0.00304378;3.825
1.32791;-0.0187525;2.71116;-0.27358;0.0841922;1.00806;0.605296;-0.659404;0.0430754;3.83
1.32791;-0.0187525;2.71116;-0.27358;0.0841922;1.00806;0.605296;-0.659404;0.0430754;3.835
0.207309;-1.1489;2.04665;-0.262706;0.0727487;1.00914;0.615194;-0.685031;0.0780337;3.84
0.207309;-1.1489;2.04665;-0.262706;0.0727487;1.00914;0.615194;-0.685031;0.0780337;3.845
-0.383755;-1.10946;1.26713;-0.251027;0.0609954;1.01068;0.642131;-0.709389;0.0951326;3.85
-0.383755;-1.10946;1.26713;-0.251027;0.0609954;1.01068;0.642131;-0.709389;0.0951326;3.855
-0.383755;-1.10946;1.26713;-0.251027;0.0609954;1.01068;0.642131;-0.709389;0.0951326;3.86
-0.383755;-1.10946;1.26713;-0.251027;0.0609954;1.01068;0.642131;-0.709389;0.0951326;3.865
-0.383755;-1.10946;1.26713;-0.251027;0.0609954;1.01068;0.642131;-0.709389;0.0951326;3.87
-0.383755;-1.10946;1.26713;-0.251027;0.0609954;1.01068;0.642131;-0.709389;0.0951326;3.875
-0.383755;-1.10946;1.26713;-0.251027;0.0609954;1.01068;0.642131;-0.709389;0.0951326;3.88
-0.0503392;-1.07726;0.598671;-0.238376;0.0493118;1.01251;0.680916;-0.719294;0.104327;3.885
-0.0503392;-1.07726;0.598671;-0.238376;0.0493118;1.01251;0.680916;-0.719294;0.104327;3.89
-0.0503392;-1.07726;0.598671;-0.238376;0.0493118;1.01251;0.680916;-0.719294;0.104327;3.895
0.325152;-0.379116;-0.359633;-0.224833;0.0376314;1.01467;0.727558;-0.716209;0.103685;3.9
0.120661;-0.383227;-0.526286;-0.214358;0.0252228;1.01625;0.728905;-0.719547;0.0960098;3.905
0.120661;-0.383227;-0.526286;-0.214358;0.0252228;1.01625;0.728905;-0.719547;0.0960098;3.91
0.120661;-0.383227;-0.526286;-0.214358;0.0252228;1.01625;0.728905;-0.719547;0.0960098;3.915
0.120661;-0.383227;-0.526286;-0.214358;0.0252228;1.01625;0.728905;-0.719547;0.0960098;3.92
0.120661;-0.383227;-0.526286;-0.214358;0.0252228;1.01625;0.728905;-0.719547;0.0960098;3.925
-0.0810783;-0.364458;-0.597157;-0.201123;0.0131644;1.01826;0.742132;-0.724934;0.0912289;3.93
-0.161125;0.047597;-0.541568;-0.190628;0.00036074;1.02033;0.707675;-0.73827;0.0888432;3.935
-0.161125;0.047597;-0.541568;-0.190628;0.00036074;1.02033;0.707675;-0.73827;0.0888432;3.94
-0.161125;0.047597;-0.541568;-0.190628;0.00036074;1.02033;0.707675;-0.73827;0.0888432;3.945
-0.161125;0.047597;-0.541568;-0.190628;0.00036074;1.02033;0.707675;-0.73827;0.0888432;3.95
-0.161125;0.047597;-0.541568;-0.190628;0.00036074;1.02033;0.707675;-0.73827;0.0888432;3.955
-0.161125;0.047597;-0.541568;-0.190628;0.00036074;1.02033;0.707675;-0.73827;0.0888432;3.96
-0.514694;0.251601;-0.437607;-0.18081;-0.0124203;1.02218;0.659414;-0.74592;0.0862163;3.965
-0.514694;0.251601;-0.437607;-0.18081;-0.0124203;1.02218;0.659414;-0.74592;0.0862163;3.97
-0.514694;0.251601;-0.437607;-0.18081;-0.0124203;1.02218;0.659414;-0.74592;0.0862163;3.975
-0.857785;0.641701;-0.645937;-0.172696;-0.0251464;1.02372;0.596335;-0.744094;0.0768687;3.98
-0.857785;0.641701;-0.645937;-0.172696;-0.0251464;1.02372;0.596335;-0.744094;0.0768687;3.985
-0.969516;0.486571;-0.446131;-0.164655;-0.0375632;1.02495;0.553566;-0.742409;0.0680914;3.99
-0.969516;0.486571;-0.446131;-0.164655;-0.0375632;1.02495;0.553566;-0.742409;0.0680914;3.995
-0.994295;0.445798;-0.294137;-0.156977;-0.0498088;1.02597;0.525936;-0.738695;0.059601;4
-0.994295;0.445798;-0.294137;-0.156977;-0.0498088;1.02597;0.525936;-0.738695;0.059601;4.005
-0.994295;0.445798;-0.294137;-0.156977;-0.0498088;1.02597;0.525936;-0.738695;0.059601;4.01
-0.994295;0.445798;-0.294137;-0.156977;-0.0498088;1.02597;0.525936;-0.738695;0.059601;4.015
-0.994295;0.445798;-0.294137;-0.156977;-0.0498088;1.02597;0.525936;-0.738695;0.059601;4.02
-0.994295;0.445798;-0.294137;-0.156977;-0.0498088;1.02597;0.525936;-0.738695;0.059601;4.025
-0.994295;0.445798;-0.294137;-0.156977;-0.0498088;1.02597;0.525936;-0.738695;0.059601;4.03
-0.846122;0.142932;0.329801;-0.148765;-0.0613466;1.0269;0.517865;-0.724944;0.0642708;4.035
-0.759865;0.39068;0.401572;-0.140395;-0.0723565;1.02787;0.513481;-0.701625;0.0741045;4.04
-0.759865;0.39068;0.401572;-0.140395;-0.0723565;1.02787;0.513481;-0.701625;0.0741045;4.045
-1.15789;0.335856;0.32894;-0.132088;-0.0826262;1.02892;0.498503;-0.673645;0.0847643;4.05
-1.15789;0.335856;0.32894;-0.132088;-0.0826262;1.02892;0.498503;-0.673645;0.0847643;4.055
-1.15789;0.335856;0.32894;-0.132088;-0.0826262;1.02892;0.498503;-0.673645;0.0847643;4.06
-1.15789;0.335856;0.32894;-0.132088;-0.0826262;1.02892;0.498503;-0.673645;0.0847643;4.065
-1.33424;0.306143;0.359712;-0.124404;-0.092575;1.03009;0.473073;-0.648928;0.0962567;4.07
-1.33424;0.306143;0.359712;-0.124404;-0.092575;1.03009;0.473073;-0.648928;0.0962567;4.075
-1.33424;0.306143;0.359712;-0.124404;-0.092575;1.03009;0.473073;-0.648928;0.0962567;4.08
-1.15865;0.29114;0.0515464;-0.117194;-0.102281;1.03123;0.448107;-0.630982;0.0984056;4.085
-1.15865;0.29114;0.0515464;-0.117194;-0.102281;1.03123;0.448107;-0.630982;0.0984056;4.09
-1.15865;0.29114;0.0515464;-0.117194;-0.102281;1.03123;0.448107;-0.630982;0.0984056;4.095
-0.802253;0.338982;-0.4549;-0.110301;-0.111919;1.03241;0.425885;-0.619019;0.0883548;4.1
-0.802253;0.338982;-0.4549;-0.110301;-0.111919;1.03241;0.425885;-0.619019;0.0883548;4.105
-0.802253;0.338982;-0.4549;-0.110301;-0.111919;1.03241;0.425885;-0.619019;0.0883548;4.11
-0.802253;0.338982;-0.4549;-0.110301;-0.111919;1.03241;0.425885;-0.619019;0.0883548;4.115
-0.802253;0.338982;-0.4549;-0.110301;-0.111919;1.03241;0.425885;-0.619019;0.0883548;4.12
-0.802253;0.338982;-0.4549;-0.110301;-0.111919;1.03241;0.425885;-0.619019;0.0883548;4.125
-0.557454;0.478788;-0.622547;-0.103648;-0.121491;1.03356;0.406223;-0.606663;0.076112;4.13
-0.557454;0.478788;-0.622547;-0.103648;-0.121491;1.03356;0.406223;-0.606663;0.076112;4.135
-0.557454;0.478788;-0.622547;-0.103648;-0.121491;1.03356;0.406223;-0.606663;0.076112;4.14
-0.557454;0.478788;-0.622547;-0.103648;-0.121491;1.03356;0.406223;-0.606663;0.076112;4.145
-0.65192;0.371264;-0.670756;-0.0970044;-0.130953;1.03459;0.389616;-0.595442;0.0635745;4.15
-0.65192;0.371264;-0.670756;-0.0970044;-0.130953;1.03459;0.389616;-0.595442;0.0635745;4.155
-0.65192;0.371264;-0.670756;-0.0970044;-0.130953;1.03459;0.389616;-0.595442;0.0635745;4.16
-0.6028;0.102624;-0.759852;-0.0905203;-0.140505;1.03546;0.375792;-0.590868;0.0502394;4.165
-0.6028;0.102624;-0.759852;-0.0905203;-0.140505;1.03546;0.375792;-0.590868;0.0502394;4.17
-0.6028;0.102624;-0.759852;-0.0905203;-0.140505;1.03546;0.375792;-0.590868;0.0502394;4.175
-0.6028;0.102624;-0.759852;-0.0905203;-0.140505;1.03546;0.375792;-0.590868;0.0502394;4.18
-0.6028;0.102624;-0.759852;-0.0905203;-0.140505;1.03546;0.375792;-0.590868;0.0502394;4.185
-0.47566;-0.0223631;-0.831913;-0.0841685;-0.150017;1.03612;0.366256;-0.586055;0.0354156;4.19
-0.612104;-0.0142453;-0.686651;-0.077873;-0.159399;1.03653;0.359861;-0.579885;0.0199647;4.195
-0.612104;-0.0142453;-0.686651;-0.077873;-0.159399;1.03653;0.359861;-0.579885;0.0199647;4.2
-0.612104;-0.0142453;-0.686651;-0.077873;-0.159399;1.03653;0.359861;-0.579885;0.0199647;4.205
-0.612104;-0.0142453;-0.686651;-0.077873;-0.159399;1.03653;0.359861;-0.579885;0.0199647;4.21
-0.879453;-0.0640105;-0.60992;-0.0716133;-0.168713;1.03672;0.351884;-0.576012;0.00504899;4.215
-0.879453;-0.0640105;-0.60992;-0.0716133;-0.168713;1.03672;0.351884;-0.576012;0.00504899;4.22
-0.879453;-0.0640105;-0.60992;-0.0716133;-0.168713;1.03672;0.351884;-0.576012;0.00504899;4.225
-0.879453;-0.0640105;-0.60992;-0.0716133;-0.168713;1.03672;0.351884;-0.576012;0.00504899;4.23
-0.697225;-0.00632875;-0.655757;-0.0652543;-0.17761;1.03672;0.35016;-0.565334;-0.00773752;4.235
-0.299264;-0.21813;-0.568761;-0.0587527;-0.186348;1.0366;0.355761;-0.559172;-0.0164812;4.24
-0.299264;-0.21813;-0.568761;-0.0587527;-0.186348;1.0366;0.355761;-0.559172;-0.0164812;4.245
-0.341935;-0.227463;-0.438814;-0.0521792;-0.194816;1.0364;0.359124;-0.548371;-0.0190294;4.25
-0.341935;-0.227463;-0.438814;-0.0521792;-0.194816;1.0364;0.359124;-0.548371;-0.0190294;4.255
-0.341935;-0.227463;-0.438814;-0.0521792;-0.194816;1.0364;0.359124;-0.548371;-0.0190294;4.26
-0.341935;-0.227463;-0.438814;-0.0521792;-0.194816;1.0364;0.359124;-0.548371;-0.0190294;4.265
-0.341935;-0.227463;-0.438814;-0.0521792;-0.194816;1.0364;0.359124;-0.548371;-0.0190294;4.27
-0.341935;-0.227463;-0.438814;-0.0521792;-0.194816;1.0364;0.359124;-0.548371;-0.0190294;4.275
-0.549365;-0.211427;-0.259092;-0.0456272;-0.203259;1.03619;0.358595;-0.538649;-0.0174967;4.28
-0.288448;-0.197226;-0.238138;-0.0391981;-0.211664;1.03594;0.363313;-0.52971;-0.0179086;4.285
-0.288448;-0.197226;-0.238138;-0.0391981;-0.211664;1.03594;0.363313;-0.52971;-0.0179086;4.29
-0.288448;-0.197226;-0.238138;-0.0391981;-0.211664;1.03594;0.363313;-0.52971;-0.0179086;4.295
-0.177147;-0.128444;-0.265038;-0.0328462;-0.220143;1.03554;0.368873;-0.525407;-0.0229621;4.3
-0.177147;-0.128444;-0.265038;-0.0328462;-0.220143;1.03554;0.368873;-0.525407;-0.0229621;4.305
-0.177147;-0.128444;-0.265038;-0.0328462;-0.220143;1.03554;0.368873;-0.525407;-0.0229621;4.31
-0.269999;-0.465553;-0.441042;-0.0264663;-0.228723;1.03489;0.372415;-0.52958;-0.0324866;4.315
-0.269999;-0.465553;-0.441042;-0.0264663;-0.228723;1.03489;0.372415;-0.52958;-0.0324866;4.32
-0.269999;-0.465553;-0.441042;-0.0264663;-0.228723;1.03489;0.372415;-0.52958;-0.0324866;4.325
-0.269999;-0.465553;-0.441042;-0.0264663;-0.228723;1.03489;0.372415;-0.52958;-0.0324866;4.33
-0.430133;-0.335329;-0.316579;-0.0200032;-0.237409;1.03406;0.371346;-0.531106;-0.0404614;4.335
-0.430133;-0.335329;-0.316579;-0.0200032;-0.237409;1.03406;0.371346;-0.531106;-0.0404614;4.34
-0.430133;-0.335329;-0.316579;-0.0200032;-0.237409;1.03406;0.371346;-0.531106;-0.0404614;4.345
-0.497195;-0.353585;-0.06191;-0.0137264;-0.246337;1.0331;0.36268;-0.53555;-0.0443775;4.35
-0.497195;-0.353585;-0.06191;-0.0137264;-0.246337;1.0331;0.36268;-0.53555;-0.0443775;4.355
-0.497195;-0.353585;-0.06191;-0.0137264;-0.246337;1.0331;0.36268;-0.53555;-0.0443775;4.36
-0.497195;-0.353585;-0.06191;-0.0137264;-0.246337;1.0331;0.36268;-0.53555;-0.0443775;4.365
-0.321936;-0.620211;-0.0709088;-0.00771657;-0.255588;1.03223;0.356881;-0.54956;-0.0466346;4.37
-0.321936;-0.620211;-0.0709088;-0.00771657;-0.255588;1.03223;0.356881;-0.54956;-0.0466346;4.375
-0.321936;-0.620211;-0.0709088;-0.00771657;-0.255588;1.03223;0.356881;-0.54956;-0.0466346;4.38
-0.0133493;-0.694161;-0.310032;-0.00159484;-0.265026;1.03143;0.357353;-0.567024;-0.0508738;4.385
-0.0133493;-0.694161;-0.310032;-0.00159484;-0.265026;1.03143;0.357353;-0.567024;-0.0508738;4.39
-0.0133493;-0.694161;-0.310032;-0.00159484;-0.265026;1.03143;0.357353;-0.567024;-0.0508738;4.395
-0.131844;-0.549704;-0.401371;0.0046913;-0.274663;1.0305;0.359022;-0.576602;-0.0561188;4.4
-0.131844;-0.549704;-0.401371;0.0046913;-0.274663;1.0305;0.359022;-0.576602;-0.0561188;4.405
-0.131844;-0.549704;-0.401371;0.0046913;-0.274663;1.0305;0.359022;-0.576602;-0.0561188;4.41
-0.131844;-0.549704;-0.401371;0.0046913;-0.274663;1.0305;0.359022;-0.576602;-0.0561188;4.415
-0.131844;-0.549704;-0.401371;0.0046913;-0.274663;1.0305;0.359022;-0.576602;-0.0561188;4.42
-0.131844;-0.549704;-0.401371;0.0046913;-0.274663;1.0305;0.359022;-0.576602;-0.0561188;4.425
-0.0369424;-0.698837;-0.225673;0.0110354;-0.284277;1.02953;0.364503;-0.583701;-0.0561375;4.43
-0.613988;-0.927088;-0.198769;0.0176027;-0.293848;1.0285;0.366352;-0.595708;-0.059107;4.435
-0.613988;-0.927088;-0.198769;0.0176027;-0.293848;1.0285;0.366352;-0.595708;-0.059107;4.44
-0.613988;-0.927088;-0.198769;0.0176027;-0.293848;1.0285;0.366352;-0.595708;-0.059107;4.445
-0.613988;-0.927088;-0.198769;0.0176027;-0.293848;1.0285;0.366352;-0.595708;-0.059107;4.45
-0.378517;-0.955225;-0.37125;0.0242376;-0.303607;1.02738;0.370228;-0.608048;-0.0685232;4.455
-0.378517;-0.955225;-0.37125;0.0242376;-0.303607;1.02738;0.370228;-0.608048;-0.0685232;4.46
-0.378517;-0.955225;-0.37125;0.0242376;-0.303607;1.02738;0.370228;-0.608048;-0.0685232;4.465
-0.129464;-0.737689;-0.311459;0.030911;-0.313432;1.02615;0.373601;-0.61348;-0.0764011;4.47
-0.129464;-0.737689;-0.311459;0.030911;-0.313432;1.02615;0.373601;-0.61348;-0.0764011;4.475
-0.129464;-0.737689;-0.311459;0.030911;-0.313432;1.02615;0.373601;-0.61348;-0.0764011;4.48
0.188921;-0.737454;-0.0183163;0.0376971;-0.323391;1.02483;0.383263;-0.625699;-0.0760533;4.485
0.188921;-0.737454;-0.0183163;0.0376971;-0.323391;1.02483;0.383263;-0.625699;-0.0760533;4.49
0.188921;-0.737454;-0.0183163;0.0376971;-0.323391;1.02483;0.383263;-0.625699;-0.0760533;4.495
0.212592;-0.826482;0.163629;0.0445338;-0.33385;1.02361;0.387465;-0.636296;-0.0761855;4.5
0.212592;-0.826482;0.163629;0.0445338;-0.33385;1.02361;0.387465;-0.636296;-0.0761855;4.505
0.212592;-0.826482;0.163629;0.0445338;-0.33385;1.02361;0.387465;-0.636296;-0.0761855;4.51
0.212592;-0.826482;0.163629;0.0445338;-0.33385;1.02361;0.387465;-0.636296;-0.0761855;4.515
0.212592;-0.826482;0.163629;0.0445338;-0.33385;1.02361;0.387465;-0.636296;-0.0761855;4.52
0.212592;-0.826482;0.163629;0.0445338;-0.33385;1.02361;0.387465;-0.636296;-0.0761855;4.525
0.212592;-0.826482;0.163629;0.0445338;-0.33385;1.02361;0.387465;-0.636296;-0.0761855;4.53
0.282021;-1.00302;0.139588;0.0515245;-0.344904;1.02244;0.399346;-0.656749;-0.075873;4.535
-0.0609749;-0.924883;-0.167845;0.0584661;-0.356748;1.02131;0.402887;-0.682238;-0.0819195;4.54
-0.0609749;-0.924883;-0.167845;0.0584661;-0.356748;1.02131;0.402887;-0.682238;-0.0819195;4.545
-0.0609749;-0.924883;-0.167845;0.0584661;-0.356748;1.02131;0.402887;-0.682238;-0.0819195;4.55
-0.0609749;-0.924883;-0.167845;0.0584661;-0.356748;1.02131;0.402887;-0.682238;-0.0819195;4.555
-0.0609749;-0.924883;-0.167845;0.0584661;-0.356748;1.02131;0.402887;-0.682238;-0.0819195;4.56
0.137686;-0.78519;-0.45893;0.0653432;-0.369372;1.02016;0.407963;-0.710402;-0.0920891;4.565
0.137686;-0.78519;-0.45893;0.0653432;-0.369372;1.02016;0.407963;-0.710402;-0.0920891;4.57
0.137686;-0.78519;-0.45893;0.0653432;-0.369372;1.02016;0.407963;-0.710402;-0.0920891;4.575
0.137686;-0.78519;-0.45893;0.0653432;-0.369372;1.02016;0.407963;-0.710402;-0.0920891;4.58
0.021304;-0.803924;-0.384978;0.0723718;-0.382584;1.01896;0.416048;-0.74269;-0.0975421;4.585
-0.211854;-1.23578;-0.0376859;0.0795068;-0.396635;1.01775;0.421056;-0.787948;-0.091824;4.59
-0.211854;-1.23578;-0.0376859;0.0795068;-0.396635;1.01775;0.421056;-0.787948;-0.091824;4.595
-0.133791;-1.35285;-0.0751154;0.086548;-0.411886;1.01673;0.424391;-0.842129;-0.0843778;4.6
-0.133791;-1.35285;-0.0751154;0.086548;-0.411886;1.01673;0.424391;-0.842129;-0.0843778;4.605
-0.133791;-1.35285;-0.0751154;0.086548;-0.411886;1.01673;0.424391;-0.842129;-0.0843778;4.61
-0.133791;-1.35285;-0.0751154;0.086548;-0.411886;1.01673;0.424391;-0.842129;-0.0843778;4.615
-0.133791;-1.35285;-0.0751154;0.086548;-0.411886;1.01673;0.424391;-0.842129;-0.0843778;4.62
-0.682139;-1.68923;0.983829;0.093943;-0.428457;1.01597;0.421502;-0.907847;-0.0692718;4.625
-0.682139;-1.68923;0.983829;0.093943;-0.428457;1.01597;0.421502;-0.907847;-0.0692718;4.63
0.658801;-1.91631;1.99872;0.101478;-0.44554;1.01566;0.433845;-0.955605;-0.029937;4.635
0.658801;-1.91631;1.99872;0.101478;-0.44554;1.01566;0.433845;-0.955605;-0.029937;4.64
0.658801;-1.91631;1.99872;0.101478;-0.44554;1.01566;0.433845;-0.955605;-0.029937;4.645
0.700012;-1.44183;2.58822;0.109734;-0.463061;1.01598;0.456314;-0.993953;0.0178409;4.65
0.700012;-1.44183;2.58822;0.109734;-0.463061;1.01598;0.456314;-0.993953;0.0178409;4.655
0.700012;-1.44183;2.58822;0.109734;-0.463061;1.01598;0.456314;-0.993953;0.0178409;4.66
0.700012;-1.44183;2.58822;0.109734;-0.463061;1.01598;0.456314;-0.993953;0.0178409;4.665
0.700012;-1.44183;2.58822;0.109734;-0.463061;1.01598;0.456314;-0.993953;0.0178409;4.67
0.700012;-1.44183;2.58822;0.109734;-0.463061;1.01598;0.456314;-0.993953;0.0178409;4.675
0.520317;-0.10962;2.68867;0.118621;-0.480923;1.01687;0.485679;-0.999278;0.063908;4.68
0.520317;-0.10962;2.68867;0.118621;-0.480923;1.01687;0.485679;-0.999278;0.063908;4.685
0.520317;-0.10962;2.68867;0.118621;-0.480923;1.01687;0.485679;-0.999278;0.063908;4.69
0.520317;-0.10962;2.68867;0.118621;-0.480923;1.01687;0.485679;-0.999278;0.063908;4.695
0.606608;0.267762;1.98966;0.127639;-0.498722;1.01819;0.503773;-0.997493;0.101215;4.7
0.471205;0.446686;1.5377;0.136097;-0.516386;1.01979;0.500417;-0.999217;0.126711;4.705
0.471205;0.446686;1.5377;0.136097;-0.516386;1.01979;0.500417;-0.999217;0.126711;4.71
0.471205;0.446686;1.5377;0.136097;-0.516386;1.01979;0.500417;-0.999217;0.126711;4.715
0.471205;0.446686;1.5377;0.136097;-0.516386;1.01979;0.500417;-0.999217;0.126711;4.72
0.471205;0.446686;1.5377;0.136097;-0.516386;1.01979;0.500417;-0.999217;0.126711;4.725
-0.0941098;0.200062;0.610901;0.146321;-0.532132;1.01867;0.516234;-0.998571;0.110854;4.73
-0.571979;0.513005;0.00481465;0.153177;-0.549849;1.01874;0.490314;-1.01647;0.0878575;4.735
-0.571979;0.513005;0.00481465;0.153177;-0.549849;1.01874;0.490314;-1.01647;0.0878575;4.74
-0.571979;0.513005;0.00481465;0.153177;-0.549849;1.01874;0.490314;-1.01647;0.0878575;4.745
-0.304431;0.793044;-0.261138;0.160266;-0.566208;1.01939;0.465469;-1.00045;0.0669423;4.75
-0.304431;0.793044;-0.261138;0.160266;-0.566208;1.01939;0.465469;-1.00045;0.0669423;4.755
-0.304431;0.793044;-0.261138;0.160266;-0.566208;1.01939;0.465469;-1.00045;0.0669423;4.76
-0.304431;0.793044;-0.261138;0.160266;-0.566208;1.01939;0.465469;-1.00045;0.0669423;4.765
-0.304431;0.793044;-0.261138;0.160266;-0.566208;1.01939;0.465469;-1.00045;0.0669423;4.77
-0.304431;0.793044;-0.261138;0.160266;-0.566208;1.01939;0.465469;-1.00045;0.0669423;4.775
-0.304431;0.793044;-0.261138;0.160266;-0.566208;1.01939;0.465469;-1.00045;0.0669423;4.78
-0.323801;1.08519;-0.203156;0.165518;-0.582622;1.02047;0.424185;-0.973813;0.0590525;4.785
-0.189799;1.07157;-0.269497;0.170965;-0.598186;1.02186;0.39826;-0.936142;0.0642952;4.79
-0.189799;1.07157;-0.269497;0.170965;-0.598186;1.02186;0.39826;-0.936142;0.0642952;4.795
-0.189799;1.07157;-0.269497;0.170965;-0.598186;1.02186;0.39826;-0.936142;0.0642952;4.8
-0.189799;1.07157;-0.269497;0.170965;-0.598186;1.02186;0.39826;-0.936142;0.0642952;4.805
-0.189799;1.07157;-0.269497;0.170965;-0.598186;1.02186;0.39826;-0.936142;0.0642952;4.81
-0.123762;1.00137;-0.122676;0.176501;-0.613082;1.02351;0.380924;-0.8974;0.081832;4.815
-0.123762;1.00137;-0.122676;0.176501;-0.613082;1.02351;0.380924;-0.8974;0.081832;4.82
-0.123762;1.00137;-0.122676;0.176501;-0.613082;1.02351;0.380924;-0.8974;0.081832;4.825
-0.123762;1.00137;-0.122676;0.176501;-0.613082;1.02351;0.380924;-0.8974;0.081832;4.83
0.0470062;1.02836;-0.217826;0.182582;-0.627279;1.02528;0.380457;-0.870818;0.0926362;4.835
0.225253;1.17391;-0.264652;0.188486;-0.641057;1.02697;0.381496;-0.851603;0.0906697;4.84
0.225253;1.17391;-0.264652;0.188486;-0.641057;1.02697;0.381496;-0.851603;0.0906697;4.845
0.225253;1.17391;-0.264652;0.188486;-0.641057;1.02697;0.381496;-0.851603;0.0906697;4.85
0.0276404;1.20157;-0.410767;0.194341;-0.654154;1.02843;0.369487;-0.827789;0.0812377;4.855
0.0276404;1.20157;-0.410767;0.194341;-0.654154;1.02843;0.369487;-0.827789;0.0812377;4.86
0.0276404;1.20157;-0.410767;0.194341;-0.654154;1.02843;0.369487;-0.827789;0.0812377;4.865
0.211604;1.00978;-0.296258;0.199708;-0.666869;1.02992;0.356203;-0.806623;0.0762618;4.87
0.211604;1.00978;-0.296258;0.199708;-0.666869;1.02992;0.356203;-0.806623;0.0762618;4.875
0.211604;1.00978;-0.296258;0.199708;-0.666869;1.02992;0.356203;-0.806623;0.0762618;4.88
-0.0251994;1.05248;-0.170621;0.205289;-0.679518;1.03104;0.346502;-0.784279;0.0732164;4.885
-0.0251994;1.05248;-0.170621;0.205289;-0.679518;1.03104;0.346502;-0.784279;0.0732164;4.89
-0.0251994;1.05248;-0.170621;0.205289;-0.679518;1.03104;0.346502;-0.784279;0.0732164;4.895
-0.0500131;1.02623;-0.209305;0.210705;-0.691609;1.03213;0.340118;-0.753253;0.0719854;4.9
-0.0500131;1.02623;-0.209305;0.210705;-0.691609;1.03213;0.340118;-0.753253;0.0719854;4.905
-0.0500131;1.02623;-0.209305;0.210705;-0.691609;1.03213;0.340118;-0.753253;0.0719854;4.91
-0.0500131;1.02623;-0.209305;0.210705;-0.691609;1.03213;0.340118;-0.753253;0.0719854;4.915
-0.0500131;1.02623;-0.209305;0.210705;-0.691609;1.03213;0.340118;-0.753253;0.0719854;4.92
-0.0500131;1.02623;-0.209305;0.210705;-0.691609;1.03213;0.340118;-0.753253;0.0719854;4.925
-0.0500131;1.02623;-0.209305;0.210705;-0.691609;1.03213;0.340118;-0.753253;0.0719854;4.93
0.0623059;0.659325;-0.422187;0.216239;-0.703172;1.03313;0.340036;-0.728292;0.0661281;4.935
0.154978;0.656032;-0.444723;0.222343;-0.714176;1.03396;0.350899;-0.702131;0.0591175;4.94
0.154978;0.656032;-0.444723;0.222343;-0.714176;1.03396;0.350899;-0.702131;0.0591175;4.945
0.138718;0.672665;-0.616999;0.228835;-0.724879;1.03457;0.365436;-0.680347;0.0464877;4.95
0.138718;0.672665;-0.616999;0.228835;-0.724879;1.03457;0.365436;-0.680347;0.0464877;4.955
0.138718;0.672665;-0.616999;0.228835;-0.724879;1.03457;0.365436;-0.680347;0.0464877;4.96
0.138718;0.672665;-0.616999;0.228835;-0.724879;1.03457;0.365436;-0.680347;0.0464877;4.965
0.138718;0.672665;-0.616999;0.228835;-0.724879;1.03457;0.365436;-0.680347;0.0464877;4.97
0.138718;0.672665;-0.616999;0.228835;-0.724879;1.03457;0.365436;-0.680347;0.0464877;4.975
0.436128;0.646907;-0.693048;0.235602;-0.735301;1.03491;0.382506;-0.657216;0.0333484;4.98
0.327193;0.5179;-0.674469;0.242233;-0.745607;1.03527;0.389316;-0.639211;0.021474;4.985
0.327193;0.5179;-0.674469;0.242233;-0.745607;1.03527;0.389316;-0.639211;0.021474;4.99
0.327193;0.5179;-0.674469;0.242233;-0.745607;1.03527;0.389316;-0.639211;0.021474;4.995
0.327193;0.5179;-0.674469;0.242233;-0.745607;1.03527;0.389316;-0.639211;0.021474;5
0.327193;0.5179;-0.674469;0.242233;-0.745607;1.03527;0.389316;-0.639211;0.021474;5.005
0.327193;0.5179;-0.674469;0.242233;-0.745607;1.03527;0.389316;-0.639211;0.021474;5.01
0.350926;0.388454;-0.680451;0.248973;-0.755533;1.03568;0.397183;-0.622965;0.00960215;5.015
0.350926;0.388454;-0.680451;0.248973;-0.755533;1.03568;0.397183;-0.622965;0.00960215;5.02
0.350926;0.388454;-0.680451;0.248973;-0.755533;1.03568;0.397183;-0.622965;0.00960215;5.025
0.350926;0.388454;-0.680451;0.248973;-0.755533;1.03568;0.397183;-0.622965;0.00960215;5.03
0.251158;0.443543;-0.716213;0.255725;-0.765431;1.03598;0.401945;-0.610254;-0.00275402;5.035
0.27458;0.542888;-0.570574;0.261793;-0.775415;1.03616;0.39659;-0.599964;-0.00967793;5.04
0.27458;0.542888;-0.570574;0.261793;-0.775415;1.03616;0.39659;-0.599964;-0.00967793;5.045
0.0896478;0.325849;-0.126742;0.267372;-0.785319;1.03628;0.38099;-0.591748;-0.00753053;5.05
0.0896478;0.325849;-0.126742;0.267372;-0.785319;1.03628;0.38099;-0.591748;-0.00753053;5.055
0.0896478;0.325849;-0.126742;0.267372;-0.785319;1.03628;0.38099;-0.591748;-0.00753053;5.06
0.0896478;0.325849;-0.126742;0.267372;-0.785319;1.03628;0.38099;-0.591748;-0.00753053;5.065
0.0896478;0.325849;-0.126742;0.267372;-0.785319;1.03628;0.38099;-0.591748;-0.00753053;5.07
0.0896478;0.325849;-0.126742;0.267372;-0.785319;1.03628;0.38099;-0.591748;-0.00753053;5.075
0.0896478;0.325849;-0.126742;0.267372;-0.785319;1.03628;0.38099;-0.591748;-0.00753053;5.08
0.0449134;0.35772;-0.13191;0.27297;-0.795383;1.03638;0.370433;-0.588546;-0.00570013;5.085
0.0532716;0.516615;-0.267581;0.278845;-0.80555;1.03644;0.369563;-0.589186;-0.00715534;5.09
0.0532716;0.516615;-0.267581;0.278845;-0.80555;1.03644;0.369563;-0.589186;-0.00715534;5.095
0.200784;0.311997;-0.178596;0.284675;-0.815636;1.03641;0.367286;-0.589471;-0.00793479;5.1
0.200784;0.311997;-0.178596;0.284675;-0.815636;1.03641;0.367286;-0.589471;-0.00793479;5.105
0.200784;0.311997;-0.178596;0.284675;-0.815636;1.03641;0.367286;-0.589471;-0.00793479;5.11
0.200784;0.311997;-0.178596;0.284675;-0.815636;1.03641;0.367286;-0.589471;-0.00793479;5.115
0.406207;0.365081;-0.24721;0.290571;-0.825653;1.03626;0.368589;-0.588295;-0.0119735;5.12
0.406207;0.365081;-0.24721;0.290571;-0.825653;1.03626;0.368589;-0.588295;-0.0119735;5.125
0.406207;0.365081;-0.24721;0.290571;-0.825653;1.03626;0.368589;-0.588295;-0.0119735;5.13
0.32344;0.273345;-0.332121;0.296691;-0.835629;1.03598;0.371648;-0.59011;-0.0167077;5.135
0.32344;0.273345;-0.332121;0.296691;-0.835629;1.03598;0.371648;-0.59011;-0.0167077;5.14
0.32344;0.273345;-0.332121;0.296691;-0.835629;1.03598;0.371648;-0.59011;-0.0167077;5.145
0.303575;0.226874;-0.314346;0.303001;-0.845595;1.03557;0.377863;-0.590274;-0.0207109;5.15
0.303575;0.226874;-0.314346;0.303001;-0.845595;1.03557;0.377863;-0.590274;-0.0207109;5.155
0.303575;0.226874;-0.314346;0.303001;-0.845595;1.03557;0.377863;-0.590274;-0.0207109;5.16
0.303575;0.226874;-0.314346;0.303001;-0.845595;1.03557;0.377863;-0.590274;-0.0207109;5.165
0.303575;0.226874;-0.314346;0.303001;-0.845595;1.03557;0.377863;-0.590274;-0.0207109;5.17
0.303575;0.226874;-0.314346;0.303001;-0.845595;1.03557;0.377863;-0.590274;-0.0207109;5.175
0.378513;0.0320968;-0.256992;0.309392;-0.855563;1.03508;0.384685;-0.591802;-0.0230897;5.18
0.378513;0.0320968;-0.256992;0.309392;-0.855563;1.03508;0.384685;-0.591802;-0.0230897;5.185
0.378513;0.0320968;-0.256992;0.309392;-0.855563;1.03508;0.384685;-0.591802;-0.0230897;5.19
0.378513;0.0320968;-0.256992;0.309392;-0.855563;1.03508;0.384685;-0.591802;-0.0230897;5.195
0.357599;0.013214;-0.311189;0.31588;-0.865634;1.03452;0.390657;-0.593785;-0.0281723;5.2
0.357599;0.013214;-0.311189;0.31588;-0.865634;1.03452;0.390657;-0.593785;-0.0281723;5.205
0.357599;0.013214;-0.311189;0.31588;-0.865634;1.03452;0.390657;-0.593785;-0.0281723;5.21
0.519094;-0.0165575;-0.271124;0.3226;-0.875691;1.03385;0.400467;-0.593332;-0.0348104;5.215
0.519094;-0.0165575;-0.271124;0.3226;-0.875691;1.03385;0.400467;-0.593332;-0.0348104;5.22
0.519094;-0.0165575;-0.271124;0.3226;-0.875691;1.03385;0.400467;-0.593332;-0.0348104;5.225
0.519094;-0.0165575;-0.271124;0.3226;-0.875691;1.03385;0.400467;-0.593332;-0.0348104;5.23
0.458009;-0.0153872;-0.320334;0.32959;-0.885762;1.03321;0.409847;-0.594315;-0.0428171;5.235
0.550901;-0.0990032;-0.316641;0.336629;-0.895943;1.03235;0.423019;-0.596278;-0.0468662;5.24
0.550901;-0.0990032;-0.316641;0.336629;-0.895943;1.03235;0.423019;-0.596278;-0.0468662;5.245
0.592575;-0.194461;-0.347174;0.343932;-0.906128;1.03142;0.437566;-0.601399;-0.0515095;5.25
0.592575;-0.194461;-0.347174;0.343932;-0.906128;1.03142;0.437566;-0.601399;-0.0515095;5.255
0.592575;-0.194461;-0.347174;0.343932;-0.906128;1.03142;0.437566;-0.601399;-0.0515095;5.26
0.592575;-0.194461;-0.347174;0.343932;-0.906128;1.03142;0.437566;-0.601399;-0.0515095;5.265
0.592575;-0.194461;-0.347174;0.343932;-0.906128;1.03142;0.437566;-0.601399;-0.0515095;5.27
0.592575;-0.194461;-0.347174;0.343932;-0.906128;1.03142;0.437566;-0.601399;-0.0515095;5.275
0.833908;-0.119922;-0.142404;0.351519;-0.91647;1.03039;0.456033;-0.607821;-0.0549221;5.28
0.694699;-0.426508;-0.0643529;0.359313;-0.926895;1.02928;0.471678;-0.619542;-0.0582226;5.285
0.694699;-0.426508;-0.0643529;0.359313;-0.926895;1.02928;0.471678;-0.619542;-0.0582226;5.29
0.694699;-0.426508;-0.0643529;0.359313;-0.926895;1.02928;0.471678;-0.619542;-0.0582226;5.295
0.64056;-0.379978;-0.0271924;0.367197;-0.937401;1.02815;0.483468;-0.628291;-0.0601126;5.3
0.64056;-0.379978;-0.0271924;0.367197;-0.937401;1.02815;0.483468;-0.628291;-0.0601126;5.305
0.64056;-0.379978;-0.0271924;0.367197;-0.937401;1.02815;0.483468;-0.628291;-0.0601126;5.31
0.64056;-0.379978;-0.0271924;0.367197;-0.937401;1.02815;0.483468;-0.628291;-0.0601126;5.315
0.64056;-0.379978;-0.0271924;0.367197;-0.937401;1.02815;0.483468;-0.628291;-0.0601126;5.32
0.64056;-0.379978;-0.0271924;0.367197;-0.937401;1.02815;0.483468;-0.628291;-0.0601126;5.325
0.632432;-0.374447;0.00257342;0.375311;-0.948078;1.02703;0.494845;-0.637167;-0.0628798;5.33
0.632432;-0.374447;0.00257342;0.375311;-0.948078;1.02703;0.494845;-0.637167;-0.0628798;5.335
0.632432;-0.374447;0.00257342;0.375311;-0.948078;1.02703;0.494845;-0.637167;-0.0628798;5.34
0.632432;-0.374447;0.00257342;0.375311;-0.948078;1.02703;0.494845;-0.637167;-0.0628798;5.345
0.921646;-0.510272;0.167359;0.383646;-0.95888;1.02597;0.510081;-0.645156;-0.0613728;5.35
0.921646;-0.510272;0.167359;0.383646;-0.95888;1.02597;0.510081;-0.645156;-0.0613728;5.355
0.921646;-0.510272;0.167359;0.383646;-0.95888;1.02597;0.510081;-0.645156;-0.0613728;5.36
0.936881;-0.330831;0.0499605;0.3924;-0.969837;1.02495;0.528722;-0.651142;-0.0625372;5.365
0.936881;-0.330831;0.0499605;0.3924;-0.969837;1.02495;0.528722;-0.651142;-0.0625372;5.37
0.936881;-0.330831;0.0499605;0.3924;-0.969837;1.02495;0.528722;-0.651142;-0.0625372;5.375
0.936881;-0.330831;0.0499605;0.3924;-0.969837;1.02495;0.528722;-0.651142;-0.0625372;5.38
1.07891;-0.359657;-0.0848166;0.401489;-0.980988;1.02394;0.545571;-0.662683;-0.0653331;5.385
0.922217;-0.559271;-0.0558744;0.41095;-0.992475;1.02297;0.56592;-0.681802;-0.0668978;5.39
0.922217;-0.559271;-0.0558744;0.41095;-0.992475;1.02297;0.56592;-0.681802;-0.0668978;5.395
0.847846;-0.74695;-0.275699;0.42098;-1.0043;1.02196;0.591813;-0.702877;-0.0708449;5.4
0.847846;-0.74695;-0.275699;0.42098;-1.0043;1.02196;0.591813;-0.702877;-0.0708449;5.405
0.847846;-0.74695;-0.275699;0.42098;-1.0043;1.02196;0.591813;-0.702877;-0.0708449;5.41
0.847846;-0.74695;-0.275699;0.42098;-1.0043;1.02196;0.591813;-0.702877;-0.0708449;5.415
0.847846;-0.74695;-0.275699;0.42098;-1.0043;1.02196;0.591813;-0.702877;-0.0708449;5.42
0.847846;-0.74695;-0.275699;0.42098;-1.0043;1.02196;0.591813;-0.702877;-0.0708449;5.425
1.06665;-0.719648;-0.373437;0.431588;-1.01646;1.02087;0.623792;-0.721536;-0.0753057;5.43
1.06665;-0.719648;-0.373437;0.431588;-1.01646;1.02087;0.623792;-0.721536;-0.0753057;5.435
1.06665;-0.719648;-0.373437;0.431588;-1.01646;1.02087;0.623792;-0.721536;-0.0753057;5.44
1.06665;-0.719648;-0.373437;0.431588;-1.01646;1.02087;0.623792;-0.721536;-0.0753057;5.445
1.2099;-0.672408;-0.493983;0.442823;-1.02885;1.01968;0.659514;-0.73708;-0.0803633;5.45
1.15691;-0.850131;-0.646024;0.454504;-1.04152;1.01842;0.689123;-0.755071;-0.0890489;5.455
1.15691;-0.850131;-0.646024;0.454504;-1.04152;1.01842;0.689123;-0.755071;-0.0890489;5.46
1.15691;-0.850131;-0.646024;0.454504;-1.04152;1.01842;0.689123;-0.755071;-0.0890489;5.465
1.15691;-0.850131;-0.646024;0.454504;-1.04152;1.01842;0.689123;-0.755071;-0.0890489;5.47
1.15691;-0.850131;-0.646024;0.454504;-1.04152;1.01842;0.689123;-0.755071;-0.0890489;5.475
0.937672;-1.1188;-0.838282;0.466677;-1.05444;1.01701;0.712088;-0.777346;-0.101047;5.48
1.37449;-0.394311;0.0574124;0.479297;-1.06796;1.01552;0.734245;-0.796362;-0.105401;5.485
1.37449;-0.394311;0.0574124;0.479297;-1.06796;1.01552;0.734245;-0.796362;-0.105401;5.49
1.37449;-0.394311;0.0574124;0.479297;-1.06796;1.01552;0.734245;-0.796362;-0.105401;5.495
1.57512;-0.470361;2.43044;0.492558;-1.08245;1.01437;0.747333;-0.822613;-0.0747721;5.5
1.57512;-0.470361;2.43044;0.492558;-1.08245;1.01437;0.747333;-0.822613;-0.0747721;5.505
1.57512;-0.470361;2.43044;0.492558;-1.08245;1.01437;0.747333;-0.822613;-0.0747721;5.51
1.2233;-2.66808;3.76769;0.505905;-1.09771;1.01386;0.74973;-0.88872;-0.0105957;5.515
1.2233;-2.66808;3.76769;0.505905;-1.09771;1.01386;0.74973;-0.88872;-0.0105957;5.52
1.2233;-2.66808;3.76769;0.505905;-1.09771;1.01386;0.74973;-0.88872;-0.0105957;5.525
1.2233;-2.66808;3.76769;0.505905;-1.09771;1.01386;0.74973;-0.88872;-0.0105957;5.53
-0.0938749;-0.685086;3.58484;0.519317;-1.11385;1.01408;0.733164;-0.923484;0.0532241;5.535
-0.0938749;-0.685086;3.58484;0.519317;-1.11385;1.01408;0.733164;-0.923484;0.0532241;5.54
-0.0938749;-0.685086;3.58484;0.519317;-1.11385;1.01408;0.733164;-0.923484;0.0532241;5.545
-0.0938749;-0.685086;3.58484;0.519317;-1.11385;1.01408;0.733164;-0.923484;0.0532241;5.55
-0.0938749;-0.685086;3.58484;0.519317;-1.11385;1.01408;0.733164;-0.923484;0.0532241;5.555
-0.0938749;-0.685086;3.58484;0.519317;-1.11385;1.01408;0.733164;-0.923484;0.0532241;5.56
-1.19169;0.151017;1.90509;0.53314;-1.1298;1.01458;0.72961;-0.931643;0.0791675;5.565
-1.19169;0.151017;1.90509;0.53314;-1.1298;1.01458;0.72961;-0.931643;0.0791675;5.57
-1.19169;0.151017;1.90509;0.53314;-1.1298;1.01458;0.72961;-0.931643;0.0791675;5.575
-1.40505;0.324163;0.939194;0.54223;-1.14683;1.01219;0.699921;-0.939836;0.0627504;5.58
-1.40505;0.324163;0.939194;0.54223;-1.14683;1.01219;0.699921;-0.939836;0.0627504;5.585
-0.239968;-0.329044;0.976444;0.553774;-1.1625;1.01157;0.713332;-0.932139;0.0643249;5.59
-0.239968;-0.329044;0.976444;0.553774;-1.1625;1.01157;0.713332;-0.932139;0.0643249;5.595
-0.239968;-0.329044;0.976444;0.553774;-1.1625;1.01157;0.713332;-0.932139;0.0643249;5.6
-0.239968;-0.329044;0.976444;0.553774;-1.1625;1.01157;0.713332;-0.932139;0.0643249;5.605
-0.239968;-0.329044;0.976444;0.553774;-1.1625;1.01157;0.713332;-0.932139;0.0643249;5.61
-0.26181;-0.0599185;0.495479;0.563185;-1.17896;1.01227;0.68935;-0.940304;0.0669268;5.615
-0.26181;-0.0599185;0.495479;0.563185;-1.17896;1.01227;0.68935;-0.940304;0.0669268;5.62
-0.26181;-0.0599185;0.495479;0.563185;-1.17896;1.01227;0.68935;-0.940304;0.0669268;5.625
-0.26181;-0.0599185;0.495479;0.563185;-1.17896;1.01227;0.68935;-0.940304;0.0669268;5.63
-0.538343;1.34576;0.27145;0.574426;-1.19366;1.01379;0.67957;-0.896303;0.0769093;5.635
-1.31774;1.31542;0.1855;0.58563;-1.20664;1.01557;0.655059;-0.847963;0.0879791;5.64
-1.31774;1.31542;0.1855;0.58563;-1.20664;1.01557;0.655059;-0.847963;0.0879791;5.645
-1.19956;0.859287;-0.0678379;0.596097;-1.21895;1.01739;0.620317;-0.812759;0.095942;5.65
-1.19956;0.859287;-0.0678379;0.596097;-1.21895;1.01739;0.620317;-0.812759;0.095942;5.655
-1.19956;0.859287;-0.0678379;0.596097;-1.21895;1.01739;0.620317;-0.812759;0.095942;5.66
-1.19956;0.859287;-0.0678379;0.596097;-1.21895;1.01739;0.620317;-0.812759;0.095942;5.665
-1.19956;0.859287;-0.0678379;0.596097;-1.21895;1.01739;0.620317;-0.812759;0.095942;5.67
-1.19956;0.859287;-0.0678379;0.596097;-1.21895;1.01739;0.620317;-0.812759;0.095942;5.675
-0.77704;0.896878;-0.44259;0.605168;-1.23155;1.01912;0.583136;-0.791398;0.0978446;5.68
-0.77704;0.896878;-0.44259;0.605168;-1.23155;1.01912;0.583136;-0.791398;0.0978446;5.685
-0.876464;0.757875;-0.72233;0.613619;-1.24415;1.02067;0.549293;-0.778697;0.0898523;5.69
-0.876464;0.757875;-0.72233;0.613619;-1.24415;1.02067;0.549293;-0.778697;0.0898523;5.695
-0.967926;0.584716;-0.548955;0.62163;-1.25652;1.02202;0.521144;-0.76715;0.0808971;5.7
-0.967926;0.584716;-0.548955;0.62163;-1.25652;1.02202;0.521144;-0.76715;0.0808971;5.705
-0.967926;0.584716;-0.548955;0.62163;-1.25652;1.02202;0.521144;-0.76715;0.0808971;5.71
-0.967926;0.584716;-0.548955;0.62163;-1.25652;1.02202;0.521144;-0.76715;0.0808971;5.715
-0.967926;0.584716;-0.548955;0.62163;-1.25652;1.02202;0.521144;-0.76715;0.0808971;5.72
-0.967926;0.584716;-0.548955;0.62163;-1.25652;1.02202;0.521144;-0.76715;0.0808971;5.725
-0.896648;0.460202;-0.46726;0.630164;-1.26827;1.02326;0.510214;-0.7508;0.0713175;5.73
-1.12878;0.826989;-0.113248;0.638714;-1.27979;1.02443;0.499447;-0.725034;0.0698606;5.735
-1.12878;0.826989;-0.113248;0.638714;-1.27979;1.02443;0.499447;-0.725034;0.0698606;5.74
-1.12878;0.826989;-0.113248;0.638714;-1.27979;1.02443;0.499447;-0.725034;0.0698606;5.745
-1.12878;0.826989;-0.113248;0.638714;-1.27979;1.02443;0.499447;-0.725034;0.0698606;5.75
-1.12878;0.826989;-0.113248;0.638714;-1.27979;1.02443;0.499447;-0.725034;0.0698606;5.755
-1.12878;0.826989;-0.113248;0.638714;-1.27979;1.02443;0.499447;-0.725034;0.0698606;5.76
-1.24904;0.890576;-0.132512;0.647197;-1.29043;1.02562;0.484967;-0.691854;0.0744448;5.765
-1.24904;0.890576;-0.132512;0.647197;-1.29043;1.02562;0.484967;-0.691854;0.0744448;5.77
-1.24904;0.890576;-0.132512;0.647197;-1.29043;1.02562;0.484967;-0.691854;0.0744448;5.775
-1.10788;0.796017;-0.0787022;0.655033;-1.30099;1.02687;0.46923;-0.66323;0.0817942;5.78
-1.10788;0.796017;-0.0787022;0.655033;-1.30099;1.02687;0.46923;-0.66323;0.0817942;5.785
-1.10788;0.796017;-0.0787022;0.655033;-1.30099;1.02687;0.46923;-0.66323;0.0817942;5.79
-1.10788;0.796017;-0.0787022;0.655033;-1.30099;1.02687;0.46923;-0.66323;0.0817942;5.795
-0.90996;0.699774;-0.131387;0.66224;-1.31155;1.02815;0.450419;-0.644139;0.0864173;5.8
-0.915915;0.81192;-0.474747;0.669;-1.32231;1.02948;0.429563;-0.634259;0.0793023;5.805
-0.915915;0.81192;-0.474747;0.669;-1.32231;1.02948;0.429563;-0.634259;0.0793023;5.81
-0.915915;0.81192;-0.474747;0.669;-1.32231;1.02948;0.429563;-0.634259;0.0793023;5.815
-0.915915;0.81192;-0.474747;0.669;-1.32231;1.02948;0.429563;-0.634259;0.0793023;5.82
-0.915915;0.81192;-0.474747;0.669;-1.32231;1.02948;0.429563;-0.634259;0.0793023;5.825
-0.915915;0.81192;-0.474747;0.669;-1.32231;1.02948;0.429563;-0.634259;0.0793023;5.83
-0.788691;0.535563;-0.451794;0.675473;-1.33285;1.03077;0.409873;-0.626389;0.0718055;5.835
-0.643373;0.388027;-0.461435;0.681862;-1.34304;1.03192;0.395511;-0.617544;0.0626118;5.84
-0.643373;0.388027;-0.461435;0.681862;-1.34304;1.03192;0.395511;-0.617544;0.0626118;5.845
-0.678556;0.444923;-0.498159;0.688203;-1.35297;1.03301;0.381158;-0.606857;0.0525738;5.85
-0.678556;0.444923;-0.498159;0.688203;-1.35297;1.03301;0.381158;-0.606857;0.0525738;5.855
-0.678556;0.444923;-0.498159;0.688203;-1.35297;1.03301;0.381158;-0.606857;0.0525738;5.86
-0.683367;0.387097;-0.50057;0.694398;-1.36267;1.03387;0.368922;-0.596872;0.0439056;5.865
-0.683367;0.387097;-0.50057;0.694398;-1.36267;1.03387;0.368922;-0.596872;0.0439056;5.87
-0.683367;0.387097;-0.50057;0.694398;-1.36267;1.03387;0.368922;-0.596872;0.0439056;5.875
-0.683367;0.387097;-0.50057;0.694398;-1.36267;1.03387;0.368922;-0.596872;0.0439056;5.88
-0.683367;0.387097;-0.50057;0.694398;-1.36267;1.03387;0.368922;-0.596872;0.0439056;5.885
-0.683367;0.387097;-0.50057;0.694398;-1.36267;1.03387;0.368922;-0.596872;0.0439056;5.89
-0.683367;0.387097;-0.50057;0.694398;-1.36267;1.03387;0.368922;-0.596872;0.0439056;5.895
-0.570947;0.272152;-0.502967;0.700625;-1.37209;1.03458;0.3618;-0.584996;0.0381487;5.9
-0.570947;0.272152;-0.502967;0.700625;-1.37209;1.03458;0.3618;-0.584996;0.0381487;5.905
-0.570947;0.272152;-0.502967;0.700625;-1.37209;1.03458;0.3618;-0.584996;0.0381487;5.91
-0.57838;0.384652;-0.618636;0.707015;-1.38127;1.03511;0.35884;-0.572804;0.0285508;5.915
-0.57838;0.384652;-0.618636;0.707015;-1.38127;1.03511;0.35884;-0.572804;0.0285508;5.92
-0.57838;0.384652;-0.618636;0.707015;-1.38127;1.03511;0.35884;-0.572804;0.0285508;5.925
-0.35169;0.188025;-0.665371;0.713508;-1.39028;1.03545;0.361048;-0.563406;0.0177126;5.93
-0.35169;0.188025;-0.665371;0.713508;-1.39028;1.03545;0.361048;-0.563406;0.0177126;5.935
-0.350663;0.217313;-0.655399;0.720033;-1.39912;1.03558;0.360832;-0.551779;0.00574623;5.94
-0.350663;0.217313;-0.655399;0.720033;-1.39912;1.03558;0.360832;-0.551779;0.00574623;5.945
-0.362832;0.0472875;-0.549815;0.726477;-1.40778;1.03556;0.358611;-0.541847;-0.00526128;5.95
-0.362832;0.0472875;-0.549815;0.726477;-1.40778;1.03556;0.358611;-0.541847;-0.00526128;5.955
-0.362832;0.0472875;-0.549815;0.726477;-1.40778;1.03556;0.358611;-0.541847;-0.00526128;5.96
-0.362832;0.0472875;-0.549815;0.726477;-1.40778;1.03556;0.358611;-0.541847;-0.00526128;5.965
-0.362832;0.0472875;-0.549815;0.726477;-1.40778;1.03556;0.358611;-0.541847;-0.00526128;5.97
-0.362832;0.0472875;-0.549815;0.726477;-1.40778;1.03556;0.358611;-0.541847;-0.00526128;5.975
-0.72899;0.0164542;-0.459128;0.732976;-1.41635;1.03541;0.35527;-0.536205;-0.0151834;5.98
-0.72899;0.0164542;-0.459128;0.732976;-1.41635;1.03541;0.35527;-0.536205;-0.0151834;5.985
-0.72899;0.0164542;-0.459128;0.732976;-1.41635;1.03541;0.35527;-0.536205;-0.0151834;5.99
-0.72899;0.0164542;-0.459128;0.732976;-1.41635;1.03541;0.35527;-0.536205;-0.0151834;5.995
-0.384739;-0.0422039;-0.304539;0.739492;-1.42481;1.03518;0.358569;-0.531234;-0.0205279;6
-0.384739;-0.0422039;-0.304539;0.739492;-1.42481;1.03518;0.358569;-0.531234;-0.0205279;6.005
-0.384739;-0.0422039;-0.304539;0.739492;-1.42481;1.03518;0.358569;-0.531234;-0.0205279;6.01
-0.154022;-0.00111946;-0.277773;0.745925;-1.43333;1.03492;0.364253;-0.526516;-0.0224814;6.015
-0.154022;-0.00111946;-0.277773;0.745925;-1.43333;1.03492;0.364253;-0.526516;-0.0224814;6.02
-0.154022;-0.00111946;-0.277773;0.745925;-1.43333;1.03492;0.364253;-0.526516;-0.0224814;6.025
-0.154022;-0.00111946;-0.277773;0.745925;-1.43333;1.03492;0.364253;-0.526516;-0.0224814;6.03
-0.326902;-0.138872;-0.275826;0.75235;-1.44186;1.03463;0.366501;-0.524652;-0.0241402;6.035
-0.406524;-0.231079;-0.220517;0.758775;-1.45036;1.03429;0.369274;-0.522001;-0.0250489;6.04
-0.406524;-0.231079;-0.220517;0.758775;-1.45036;1.03429;0.369274;-0.522001;-0.0250489;6.045
-0.406524;-0.231079;-0.220517;0.758775;-1.45036;1.03429;0.369274;-0.522001;-0.0250489;6.05
-0.406524;-0.231079;-0.220517;0.758775;-1.45036;1.03429;0.369274;-0.522001;-0.0250489;6.055
-0.406524;-0.231079;-0.220517;0.758775;-1.45036;1.03429;0.369274;-0.522001;-0.0250489;6.06
-0.427133;-0.389552;-0.235746;0.765124;-1.45878;1.03392;0.368798;-0.521522;-0.0262992;6.065
-0.427133;-0.389552;-0.235746;0.765124;-1.45878;1.03392;0.368798;-0.521522;-0.0262992;6.07
-0.427133;-0.389552;-0.235746;0.765124;-1.45878;1.03392;0.368798;-0.521522;-0.0262992;6.075
-0.365283;-0.331461;-0.172304;0.771393;-1.46718;1.03351;0.368202;-0.522925;-0.0274177;6.08
-0.365283;-0.331461;-0.172304;0.771393;-1.46718;1.03351;0.368202;-0.522925;-0.0274177;6.085
-0.0314892;-0.478139;-0.0224228;0.777463;-1.47572;1.03308;0.368643;-0.529187;-0.0247699;6.09
-0.0314892;-0.478139;-0.0224228;0.777463;-1.47572;1.03308;0.368643;-0.529187;-0.0247699;6.095
0.294437;-0.449008;-0.223466;0.783288;-1.4845;1.03262;0.370151;-0.536988;-0.0258795;6.1
0.294437;-0.449008;-0.223466;0.783288;-1.4845;1.03262;0.370151;-0.536988;-0.0258795;6.105
0.294437;-0.449008;-0.223466;0.783288;-1.4845;1.03262;0.370151;-0.536988;-0.0258795;6.11
0.294437;-0.449008;-0.223466;0.783288;-1.4845;1.03262;0.370151;-0.536988;-0.0258795;6.115
0.294437;-0.449008;-0.223466;0.783288;-1.4845;1.03262;0.370151;-0.536988;-0.0258795;6.12
0.294437;-0.449008;-0.223466;0.783288;-1.4845;1.03262;0.370151;-0.536988;-0.0258795;6.125
0.294437;-0.449008;-0.223466;0.783288;-1.4845;1.03262;0.370151;-0.536988;-0.0258795;6.13
-0.447052;-0.548775;-0.389058;0.789014;-1.49357;1.03204;0.35822;-0.54718;-0.0327228;6.135
-0.447052;-0.548775;-0.389058;0.789014;-1.49357;1.03204;0.35822;-0.54718;-0.0327228;6.14
-0.447052;-0.548775;-0.389058;0.789014;-1.49357;1.03204;0.35822;-0.54718;-0.0327228;6.145
-0.274503;-0.712487;-0.462684;0.794565;-1.50299;1.03132;0.346767;-0.563434;-0.0423563;6.15
-0.551305;-0.62053;-0.358568;0.79999;-1.51269;1.03044;0.329973;-0.576726;-0.0501937;6.155
-0.551305;-0.62053;-0.358568;0.79999;-1.51269;1.03044;0.329973;-0.576726;-0.0501937;6.16
-0.645829;-0.980376;-0.163174;0.80533;-1.52282;1.02943;0.313814;-0.597853;-0.056306;6.165
-0.645829;-0.980376;-0.163174;0.80533;-1.52282;1.02943;0.313814;-0.597853;-0.056306;6.17
-0.645829;-0.980376;-0.163174;0.80533;-1.52282;1.02943;0.313814;-0.597853;-0.056306;6.175
-0.645829;-0.980376;-0.163174;0.80533;-1.52282;1.02943;0.313814;-0.597853;-0.056306;6.18
-0.645829;-0.980376;-0.163174;0.80533;-1.52282;1.02943;0.313814;-0.597853;-0.056306;6.185
-0.645829;-0.980376;-0.163174;0.80533;-1.52282;1.02943;0.313814;-0.597853;-0.056306;6.19
-0.645829;-0.980376;-0.163174;0.80533;-1.52282;1.02943;0.313814;-0.597853;-0.056306;6.195
-0.29841;-0.931842;-0.236794;0.810704;-1.53323;1.02836;0.306305;-0.616486;-0.0644094;6.2
-0.29841;-0.931842;-0.236794;0.810704;-1.53323;1.02836;0.306305;-0.616486;-0.0644094;6.205
-0.29841;-0.931842;-0.236794;0.810704;-1.53323;1.02836;0.306305;-0.616486;-0.0644094;6.21
0.18116;-0.822081;-0.0672451;0.816481;-1.54376;1.02725;0.31609;-0.630126;-0.0669204;6.215
0.18116;-0.822081;-0.0672451;0.816481;-1.54376;1.02725;0.31609;-0.630126;-0.0669204;6.22
0.18116;-0.822081;-0.0672451;0.816481;-1.54376;1.02725;0.31609;-0.630126;-0.0669204;6.225
-0.0542452;-0.556467;-0.073458;0.82281;-1.55439;1.02617;0.329931;-0.640933;-0.0694193;6.23
-0.0542452;-0.556467;-0.073458;0.82281;-1.55439;1.02617;0.329931;-0.640933;-0.0694193;6.235
-0.0542452;-0.556467;-0.073458;0.82281;-1.55439;1.02617;0.329931;-0.640933;-0.0694193;6.24
-0.0542452;-0.556467;-0.073458;0.82281;-1.55439;1.02617;0.329931;-0.640933;-0.0694193;6.245
-0.0703367;-0.840137;-0.04985;0.829342;-1.56527;1.02513;0.34298;-0.657588;-0.0711849;6.25
0.315548;-0.957993;0.00701668;0.835932;-1.57663;1.02415;0.36154;-0.678309;-0.0698374;6.255
0.315548;-0.957993;0.00701668;0.835932;-1.57663;1.02415;0.36154;-0.678309;-0.0698374;6.26
0.315548;-0.957993;0.00701668;0.835932;-1.57663;1.02415;0.36154;-0.678309;-0.0698374;6.265
0.315548;-0.957993;0.00701668;0.835932;-1.57663;1.02415;0.36154;-0.678309;-0.0698374;6.27
0.315548;-0.957993;0.00701668;0.835932;-1.57663;1.02415;0.36154;-0.678309;-0.0698374;6.275
0.315548;-0.957993;0.00701668;0.835932;-1.57663;1.02415;0.36154;-0.678309;-0.0698374;6.28
0.280444;-0.740151;-0.170639;0.842732;-1.58862;1.02328;0.380784;-0.701132;-0.0696986;6.285
0.280444;-0.740151;-0.170639;0.842732;-1.58862;1.02328;0.380784;-0.701132;-0.0696986;6.29
0.280444;-0.740151;-0.170639;0.842732;-1.58862;1.02328;0.380784;-0.701132;-0.0696986;6.295
0.282995;-0.655942;-0.137502;0.849819;-1.60103;1.02247;0.399396;-0.727684;-0.0686179;6.3
0.282995;-0.655942;-0.137502;0.849819;-1.60103;1.02247;0.399396;-0.727684;-0.0686179;6.305
0.282995;-0.655942;-0.137502;0.849819;-1.60103;1.02247;0.399396;-0.727684;-0.0686179;6.31
-0.113253;-0.920667;-0.220445;0.857038;-1.6139;1.0217;0.407815;-0.759285;-0.0681421;6.315
-0.113253;-0.920667;-0.220445;0.857038;-1.6139;1.0217;0.407815;-0.759285;-0.0681421;6.32
-0.113253;-0.920667;-0.220445;0.857038;-1.6139;1.0217;0.407815;-0.759285;-0.0681421;6.325
-0.133085;-1.10291;-0.377579;0.864329;-1.62747;1.02093;0.4153;-0.792888;-0.0700179;6.33
-0.133085;-1.10291;-0.377579;0.864329;-1.62747;1.02093;0.4153;-0.792888;-0.0700179;6.335
-0.326301;-1.44154;-0.121904;0.871633;-1.6416;1.02027;0.413927;-0.826412;-0.0683601;6.34
-0.326301;-1.44154;-0.121904;0.871633;-1.6416;1.02027;0.413927;-0.826412;-0.0683601;6.345
-0.326301;-1.44154;-0.121904;0.871633;-1.6416;1.02027;0.413927;-0.826412;-0.0683601;6.35
-0.326301;-1.44154;-0.121904;0.871633;-1.6416;1.02027;0.413927;-0.826412;-0.0683601;6.355
-0.326301;-1.44154;-0.121904;0.871633;-1.6416;1.02027;0.413927;-0.826412;-0.0683601;6.36
-0.336849;-1.64043;1.35307;0.879251;-1.65652;1.01991;0.420039;-0.862218;-0.0466866;6.365
-0.336849;-1.64043;1.35307;0.879251;-1.65652;1.01991;0.420039;-0.862218;-0.0466866;6.37
-0.336849;-1.64043;1.35307;0.879251;-1.65652;1.01991;0.420039;-0.862218;-0.0466866;6.375
-0.336849;-1.64043;1.35307;0.879251;-1.65652;1.01991;0.420039;-0.862218;-0.0466866;6.38
0.733915;-1.43488;1.78339;0.887528;-1.6719;1.01997;0.456547;-0.891437;-0.0146203;6.385
0.250992;-0.989573;2.56904;0.896765;-1.68764;1.02046;0.492419;-0.909001;0.0287933;6.39
0.250992;-0.989573;2.56904;0.896765;-1.68764;1.02046;0.492419;-0.909001;0.0287933;6.395
0.48512;-0.349562;2.48534;0.906099;-1.70361;1.0214;0.515037;-0.9024;0.0752416;6.4
0.48512;-0.349562;2.48534;0.906099;-1.70361;1.0214;0.515037;-0.9024;0.0752416;6.405
0.48512;-0.349562;2.48534;0.906099;-1.70361;1.0214;0.515037;-0.9024;0.0752416;6.41
0.48512;-0.349562;2.48534;0.906099;-1.70361;1.0214;0.515037;-0.9024;0.0752416;6.415
0.48512;-0.349562;2.48534;0.906099;-1.70361;1.0214;0.515037;-0.9024;0.0752416;6.42
0.48512;-0.349562;2.48534;0.906099;-1.70361;1.0214;0.515037;-0.9024;0.0752416;6.425
0.880942;0.16265;1.63921;0.915051;-1.71977;1.02249;0.52585;-0.897971;0.105835;6.43
0.880942;0.16265;1.63921;0.915051;-1.71977;1.02249;0.52585;-0.897971;0.105835;6.435
0.18897;0.379807;0.997736;0.923383;-1.73656;1.02355;0.515145;-0.921614;0.115505;6.44
0.18897;0.379807;0.997736;0.923383;-1.73656;1.02355;0.515145;-0.921614;0.115505;6.445
0.170625;0.314649;0.410469;0.934887;-1.7519;1.02109;0.546955;-0.945711;0.086065;6.45
0.170625;0.314649;0.410469;0.934887;-1.7519;1.02109;0.546955;-0.945711;0.086065;6.455
0.170625;0.314649;0.410469;0.934887;-1.7519;1.02109;0.546955;-0.945711;0.086065;6.46
0.170625;0.314649;0.410469;0.934887;-1.7519;1.02109;0.546955;-0.945711;0.086065;6.465
0.170625;0.314649;0.410469;0.934887;-1.7519;1.02109;0.546955;-0.945711;0.086065;6.47
0.170625;0.314649;0.410469;0.934887;-1.7519;1.02109;0.546955;-0.945711;0.086065;6.475
0.226194;0.531136;-0.0516851;0.941371;-1.76992;1.02028;0.509889;-0.983965;0.0654311;6.48
-0.164939;0.913256;-0.474913;0.94812;-1.78646;1.02013;0.471136;-0.983272;0.0445628;6.485
-0.164939;0.913256;-0.474913;0.94812;-1.78646;1.02013;0.471136;-0.983272;0.0445628;6.49
-0.164939;0.913256;-0.474913;0.94812;-1.78646;1.02013;0.471136;-0.983272;0.0445628;6.495
-0.164939;0.913256;-0.474913;0.94812;-1.78646;1.02013;0.471136;-0.983272;0.0445628;6.5
-0.164939;0.913256;-0.474913;0.94812;-1.78646;1.02013;0.471136;-0.983272;0.0445628;6.505
-0.164939;0.913256;-0.474913;0.94812;-1.78646;1.02013;0.471136;-0.983272;0.0445628;6.51
-0.34463;0.969982;-0.542736;0.952497;-1.80262;1.02035;0.410653;-0.962421;0.0308381;6.515
-0.34463;0.969982;-0.542736;0.952497;-1.80262;1.02035;0.410653;-0.962421;0.0308381;6.52
-0.34463;0.969982;-0.542736;0.952497;-1.80262;1.02035;0.410653;-0.962421;0.0308381;6.525
-0.34463;0.969982;-0.542736;0.952497;-1.80262;1.02035;0.410653;-0.962421;0.0308381;6.53
-0.263653;0.77702;-0.221936;0.957081;-1.81768;1.02085;0.37284;-0.924945;0.0347542;6.535
-0.350151;0.946198;-0.289679;0.961848;-1.83198;1.0216;0.35188;-0.886986;0.0395375;6.54
-0.350151;0.946198;-0.289679;0.961848;-1.83198;1.0216;0.35188;-0.886986;0.0395375;6.545
-0.200794;0.870061;-0.0204898;0.967244;-1.84565;1.02251;0.346648;-0.855097;0.0465948;6.55
-0.200794;0.870061;-0.0204898;0.967244;-1.84565;1.02251;0.346648;-0.855097;0.0465948;6.555
-0.200794;0.870061;-0.0204898;0.967244;-1.84565;1.02251;0.346648;-0.855097;0.0465948;6.56
-0.200794;0.870061;-0.0204898;0.967244;-1.84565;1.02251;0.346648;-0.855097;0.0465948;6.565
-0.200794;0.870061;-0.0204898;0.967244;-1.84565;1.02251;0.346648;-0.855097;0.0465948;6.57
-0.200794;0.870061;-0.0204898;0.967244;-1.84565;1.02251;0.346648;-0.855097;0.0465948;6.575
-0.200794;0.870061;-0.0204898;0.967244;-1.84565;1.02251;0.346648;-0.855097;0.0465948;6.58
-0.0294537;0.868462;-0.0926263;0.973029;-1.85879;1.02348;0.343469;-0.826801;0.0477233;6.585
0.0955837;1.01944;0.00609461;0.978699;-1.87156;1.02444;0.336275;-0.802572;0.0485101;6.59
0.0955837;1.01944;0.00609461;0.978699;-1.87156;1.02444;0.336275;-0.802572;0.0485101;6.595
0.0530809;1.29646;-0.141974;0.984043;-1.88384;1.02539;0.32157;-0.774135;0.0478372;6.6
0.0530809;1.29646;-0.141974;0.984043;-1.88384;1.02539;0.32157;-0.774135;0.0478372;6.605
0.0530809;1.29646;-0.141974;0.984043;-1.88384;1.02539;0.32157;-0.774135;0.0478372;6.61
0.0530809;1.29646;-0.141974;0.984043;-1.88384;1.02539;0.32157;-0.774135;0.0478372;6.615
0.0530809;1.29646;-0.141974;0.984043;-1.88384;1.02539;0.32157;-0.774135;0.0478372;6.62
0.0530809;1.29646;-0.141974;0.984043;-1.88384;1.02539;0.32157;-0.774135;0.0478372;6.625
0.0530809;1.29646;-0.141974;0.984043;-1.88384;1.02539;0.32157;-0.774135;0.0478372;6.63
0.166583;1.12582;0.148575;0.988976;-1.89559;1.02639;0.312598;-0.745384;0.0542729;6.635
-0.0490253;1.34723;0.246582;0.99407;-1.90673;1.0275;0.310093;-0.707847;0.0658968;6.64
-0.0490253;1.34723;0.246582;0.99407;-1.90673;1.0275;0.310093;-0.707847;0.0658968;6.645
-0.0490253;1.34723;0.246582;0.99407;-1.90673;1.0275;0.310093;-0.707847;0.0658968;6.65
-0.0490253;1.34723;0.246582;0.99407;-1.90673;1.0275;0.310093;-0.707847;0.0658968;6.655
-0.0490253;1.34723;0.246582;0.99407;-1.90673;1.0275;0.310093;-0.707847;0.0658968;6.66
-0.137972;1.18784;0.171627;0.999184;-1.91728;1.02869;0.311906;-0.673288;0.0756317;6.665
-0.137972;1.18784;0.171627;0.999184;-1.91728;1.02869;0.311906;-0.673288;0.0756317;6.67
-0.137972;1.18784;0.171627;0.999184;-1.91728;1.02869;0.311906;-0.673288;0.0756317;6.675
-0.0926559;1.07804;-0.0462614;1.00474;-1.92741;1.02989;0.321219;-0.643447;0.0780974;6.68
-0.0926559;1.07804;-0.0462614;1.00474;-1.92741;1.02989;0.321219;-0.643447;0.0780974;6.685
-0.0566271;1.0517;-0.245634;1.01069;-1.93735;1.031;0.335105;-0.61794;0.0724965;6.69
-0.0566271;1.0517;-0.245634;1.01069;-1.93735;1.031;0.335105;-0.61794;0.0724965;6.695
0.0966633;0.706105;-0.434382;1.01714;-1.94712;1.03197;0.351965;-0.599615;0.061948;6.7
0.0966633;0.706105;-0.434382;1.01714;-1.94712;1.03197;0.351965;-0.599615;0.061948;6.705
0.0966633;0.706105;-0.434382;1.01714;-1.94712;1.03197;0.351965;-0.599615;0.061948;6.71
0.0966633;0.706105;-0.434382;1.01714;-1.94712;1.03197;0.351965;-0.599615;0.061948;6.715
0.0966633;0.706105;-0.434382;1.01714;-1.94712;1.03197;0.351965;-0.599615;0.061948;6.72
0.0966633;0.706105;-0.434382;1.01714;-1.94712;1.03197;0.351965;-0.599615;0.061948;6.725
0.0966633;0.706105;-0.434382;1.01714;-1.94712;1.03197;0.351965;-0.599615;0.061948;6.73
0.128208;0.660383;-0.654799;1.02391;-1.95672;1.03273;0.368373;-0.582183;0.0468275;6.735
0.0509626;0.648877;-0.759107;1.03083;-1.96608;1.03343;0.380528;-0.565505;0.0315434;6.74
0.0509626;0.648877;-0.759107;1.03083;-1.96608;1.03343;0.380528;-0.565505;0.0315434;6.745
0.184436;0.602821;-0.722551;1.03792;-1.97525;1.03402;0.394015;-0.551419;0.0189697;6.75
0.184436;0.602821;-0.722551;1.03792;-1.97525;1.03402;0.394015;-0.551419;0.0189697;6.755
0.184436;0.602821;-0.722551;1.03792;-1.97525;1.03402;0.394015;-0.551419;0.0189697;6.76
0.184436;0.602821;-0.722551;1.03792;-1.97525;1.03402;0.394015;-0.551419;0.0189697;6.765
0.163709;0.472334;-0.632067;1.0451;-1.98422;1.03448;0.402545;-0.540672;0.0106424;6.77
0.163709;0.472334;-0.632067;1.0451;-1.98422;1.03448;0.402545;-0.540672;0.0106424;6.775
0.163709;0.472334;-0.632067;1.0451;-1.98422;1.03448;0.402545;-0.540672;0.0106424;6.78
0.266258;0.291126;-0.584152;1.0524;-1.99313;1.03483;0.410598;-0.538247;0.00420201;6.785
0.266258;0.291126;-0.584152;1.0524;-1.99313;1.03483;0.410598;-0.538247;0.00420201;6.79
0.266258;0.291126;-0.584152;1.0524;-1.99313;1.03483;0.410598;-0.538247;0.00420201;6.795
0.230281;0.329473;-0.531948;1.05963;-2.00213;1.03507;0.415318;-0.536978;-0.00199426;6.8
0.230281;0.329473;-0.531948;1.05963;-2.00213;1.03507;0.415318;-0.536978;-0.00199426;6.805
0.230281;0.329473;-0.531948;1.05963;-2.00213;1.03507;0.415318;-0.536978;-0.00199426;6.81
0.230281;0.329473;-0.531948;1.05963;-2.00213;1.03507;0.415318;-0.536978;-0.00199426;6.815
0.230281;0.329473;-0.531948;1.05963;-2.00213;1.03507;0.415318;-0.536978;-0.00199426;6.82
0.230281;0.329473;-0.531948;1.05963;-2.00213;1.03507;0.415318;-0.536978;-0.00199426;6.825
0.295918;0.133042;-0.501965;1.0665;-2.01114;1.03516;0.415471;-0.536479;-0.00649238;6.83
0.265396;0.15367;-0.38237;1.07311;-2.02012;1.03511;0.412441;-0.536256;-0.0116068;6.835
0.265396;0.15367;-0.38237;1.07311;-2.02012;1.03511;0.412441;-0.536256;-0.0116068;6.84
0.265396;0.15367;-0.38237;1.07311;-2.02012;1.03511;0.412441;-0.536256;-0.0116068;6.845
0.507479;0.15326;-0.485295;1.07976;-2.02903;1.03485;0.415125;-0.536021;-0.0211384;6.85
0.507479;0.15326;-0.485295;1.07976;-2.02903;1.03485;0.415125;-0.536021;-0.0211384;6.855
0.507479;0.15326;-0.485295;1.07976;-2.02903;1.03485;0.415125;-0.536021;-0.0211384;6.86
0.507479;0.15326;-0.485295;1.07976;-2.02903;1.03485;0.415125;-0.536021;-0.0211384;6.865
0.507479;0.15326;-0.485295;1.07976;-2.02903;1.03485;0.415125;-0.536021;-0.0211384;6.87
0.507479;0.15326;-0.485295;1.07976;-2.02903;1.03485;0.415125;-0.536021;-0.0211384;6.875
0.507479;0.15326;-0.485295;1.07976;-2.02903;1.03485;0.415125;-0.536021;-0.0211384;6.88
0.42741;0.273608;-0.545669;1.08616;-2.03789;1.03436;0.412864;-0.531744;-0.0318965;6.885
0.430381;-0.0816203;-0.474327;1.09227;-2.04671;1.0336;0.407315;-0.533571;-0.0405531;6.89
0.430381;-0.0816203;-0.474327;1.09227;-2.04671;1.0336;0.407315;-0.533571;-0.0405531;6.895
0.534542;-0.0969467;-0.5266;1.09833;-2.05557;1.0327;0.406562;-0.53516;-0.0497446;6.9
0.534542;-0.0969467;-0.5266;1.09833;-2.05557;1.0327;0.406562;-0.53516;-0.0497446;6.905
0.534542;-0.0969467;-0.5266;1.09833;-2.05557;1.0327;0.406562;-0.53516;-0.0497446;6.91
0.534542;-0.0969467;-0.5266;1.09833;-2.05557;1.0327;0.406562;-0.53516;-0.0497446;6.915
0.534542;-0.0969467;-0.5266;1.09833;-2.05557;1.0327;0.406562;-0.53516;-0.0497446;6.92
0.534542;-0.0969467;-0.5266;1.09833;-2.05557;1.0327;0.406562;-0.53516;-0.0497446;6.925
0.430794;-0.0400118;-0.498866;1.10468;-2.06445;1.03173;0.409589;-0.535384;-0.0561575;6.93
0.637992;-0.232211;-0.411446;1.11124;-2.07338;1.03067;0.416803;-0.539136;-0.0618702;6.935
0.637992;-0.232211;-0.411446;1.11124;-2.07338;1.03067;0.416803;-0.539136;-0.0618702;6.94
0.637992;-0.232211;-0.411446;1.11124;-2.07338;1.03067;0.416803;-0.539136;-0.0618702;6.945
0.674313;-0.255602;-0.345273;1.11777;-2.08234;1.02951;0.419035;-0.542366;-0.0677213;6.95
0.674313;-0.255602;-0.345273;1.11777;-2.08234;1.02951;0.419035;-0.542366;-0.0677213;6.955
0.674313;-0.255602;-0.345273;1.11777;-2.08234;1.02951;0.419035;-0.542366;-0.0677213;6.96
0.674313;-0.255602;-0.345273;1.11777;-2.08234;1.02951;0.419035;-0.542366;-0.0677213;6.965
0.948473;-0.154047;-0.400103;1.12422;-2.0914;1.02821;0.4232;-0.545305;-0.0759633;6.97
0.948473;-0.154047;-0.400103;1.12422;-2.0914;1.02821;0.4232;-0.545305;-0.0759633;6.975
0.948473;-0.154047;-0.400103;1.12422;-2.0914;1.02821;0.4232;-0.545305;-0.0759633;6.98
0.902807;-0.182657;-0.235965;1.13068;-2.10047;1.02681;0.426714;-0.547223;-0.0813914;6.985
0.902807;-0.182657;-0.235965;1.13068;-2.10047;1.02681;0.426714;-0.547223;-0.0813914;6.99
0.902807;-0.182657;-0.235965;1.13068;-2.10047;1.02681;0.426714;-0.547223;-0.0813914;6.995
0.902807;-0.182657;-0.235965;1.13068;-2.10047;1.02681;0.426714;-0.547223;-0.0813914;7
0.902807;-0.182657;-0.235965;1.13068;-2.10047;1.02681;0.426714;-0.547223;-0.0813914;7.005
0.902807;-0.182657;-0.235965;1.13068;-2.10047;1.02681;0.426714;-0.547223;-0.0813914;7.01
0.902807;-0.182657;-0.235965;1.13068;-2.10047;1.02681;0.426714;-0.547223;-0.0813914;7.015
0.800166;-0.197134;0.0509594;1.13723;-2.10959;1.02545;0.429426;-0.553468;-0.08034;7.02
0.800166;-0.197134;0.0509594;1.13723;-2.10959;1.02545;0.429426;-0.553468;-0.08034;7.025
0.756673;-0.36633;0.112898;1.14385;-2.11883;1.02424;0.434895;-0.560596;-0.0753132;7.03
0.668642;-0.371203;0.215079;1.15062;-2.12816;1.02315;0.438089;-0.56496;-0.0675636;7.035
0.668642;-0.371203;0.215079;1.15062;-2.12816;1.02315;0.438089;-0.56496;-0.0675636;7.04
0.668642;-0.371203;0.215079;1.15062;-2.12816;1.02315;0.438089;-0.56496;-0.0675636;7.045
0.77875;-0.233565;0.252136;1.15762;-2.13772;1.02217;0.446693;-0.569259;-0.0606348;7.05
0.77875;-0.233565;0.252136;1.15762;-2.13772;1.02217;0.446693;-0.569259;-0.0606348;7.055
0.77875;-0.233565;0.252136;1.15762;-2.13772;1.02217;0.446693;-0.569259;-0.0606348;7.06
0.77875;-0.233565;0.252136;1.15762;-2.13772;1.02217;0.446693;-0.569259;-0.0606348;7.065
0.77875;-0.233565;0.252136;1.15762;-2.13772;1.02217;0.446693;-0.569259;-0.0606348;7.07
0.77875;-0.233565;0.252136;1.15762;-2.13772;1.02217;0.446693;-0.569259;-0.0606348;7.075
0.77875;-0.233565;0.252136;1.15762;-2.13772;1.02217;0.446693;-0.569259;-0.0606348;7.08
0.862599;-0.276097;0.230857;1.16524;-2.14736;1.02119;0.4644;-0.575271;-0.0587852;7.085
0.945568;-0.237888;-0.0300117;1.17346;-2.15714;1.02011;0.484549;-0.578018;-0.0638726;7.09
0.945568;-0.237888;-0.0300117;1.17346;-2.15714;1.02011;0.484549;-0.578018;-0.0638726;7.095
0.945568;-0.237888;-0.0300117;1.17346;-2.15714;1.02011;0.484549;-0.578018;-0.0638726;7.1
1.17138;-0.0915168;0.108791;1.182;-2.16702;1.01891;0.506301;-0.581218;-0.0653411;7.105
1.17138;-0.0915168;0.108791;1.182;-2.16702;1.01891;0.506301;-0.581218;-0.0653411;7.11
1.17138;-0.0915168;0.108791;1.182;-2.16702;1.01891;0.506301;-0.581218;-0.0653411;7.115
0.968046;-0.706577;-0.00503673;1.19131;-2.17706;1.01762;0.534354;-0.595108;-0.0696436;7.12
0.968046;-0.706577;-0.00503673;1.19131;-2.17706;1.01762;0.534354;-0.595108;-0.0696436;7.125
0.968046;-0.706577;-0.00503673;1.19131;-2.17706;1.01762;0.534354;-0.595108;-0.0696436;7.13
0.900925;-0.824096;-0.00582909;1.20113;-2.18728;1.0164;0.566335;-0.608951;-0.0699919;7.135
0.900925;-0.824096;-0.00582909;1.20113;-2.18728;1.0164;0.566335;-0.608951;-0.0699919;7.14
0.900925;-0.824096;-0.00582909;1.20113;-2.18728;1.0164;0.566335;-0.608951;-0.0699919;7.145
1.03192;-0.403142;-0.170023;1.21171;-2.19786;1.01535;0.605926;-0.620826;-0.0709154;7.15
1.03192;-0.403142;-0.170023;1.21171;-2.19786;1.01535;0.605926;-0.620826;-0.0709154;7.155
1.03192;-0.403142;-0.170023;1.21171;-2.19786;1.01535;0.605926;-0.620826;-0.0709154;7.16
1.03192;-0.403142;-0.170023;1.21171;-2.19786;1.01535;0.605926;-0.620826;-0.0709154;7.165
1.03192;-0.403142;-0.170023;1.21171;-2.19786;1.01535;0.605926;-0.620826;-0.0709154;7.17
1.03192;-0.403142;-0.170023;1.21171;-2.19786;1.01535;0.605926;-0.620826;-0.0709154;7.175
1.00178;-0.408822;-0.195535;1.22284;-2.20861;1.01441;0.642862;-0.63366;-0.0712441;7.18
1.00178;-0.408822;-0.195535;1.22284;-2.20861;1.01441;0.642862;-0.63366;-0.0712441;7.185
1.10243;-0.428166;-0.332092;1.23456;-2.21966;1.01346;0.677344;-0.649747;-0.0739299;7.19
1.10243;-0.428166;-0.332092;1.23456;-2.21966;1.01346;0.677344;-0.649747;-0.0739299;7.195
0.961769;-0.518076;-0.568561;1.24671;-2.23095;1.01239;0.701756;-0.666804;-0.0830117;7.2
0.961769;-0.518076;-0.568561;1.24671;-2.23095;1.01239;0.701756;-0.666804;-0.0830117;7.205
0.961769;-0.518076;-0.568561;1.24671;-2.23095;1.01239;0.701756;-0.666804;-0.0830117;7.21
1.00504;-0.186207;0.366556;1.25923;-2.24267;1.01133;0.721408;-0.684091;-0.0824078;7.215
1.00504;-0.186207;0.366556;1.25923;-2.24267;1.01133;0.721408;-0.684091;-0.0824078;7.22
1.00504;-0.186207;0.366556;1.25923;-2.24267;1.01133;0.721408;-0.684091;-0.0824078;7.225
1.19929;-0.140555;2.19672;1.27217;-2.25522;1.01073;0.730299;-0.706339;-0.0542655;7.23
1.19929;-0.140555;2.19672;1.27217;-2.25522;1.01073;0.730299;-0.706339;-0.0542655;7.235
1.19929;-0.140555;2.19672;1.27217;-2.25522;1.01073;0.730299;-0.706339;-0.0542655;7.24
1.19929;-0.140555;2.19672;1.27217;-2.25522;1.01073;0.730299;-0.706339;-0.0542655;7.245
1.28665;-1.80474;3.727;1.28524;-2.26863;1.01097;0.736083;-0.762541;0.0137129;7.25
1.28665;-1.80474;3.727;1.28524;-2.26863;1.01097;0.736083;-0.762541;0.0137129;7.255
1.28665;-1.80474;3.727;1.28524;-2.26863;1.01097;0.736083;-0.762541;0.0137129;7.26
1.28665;-1.80474;3.727;1.28524;-2.26863;1.01097;0.736083;-0.762541;0.0137129;7.265
1.28665;-1.80474;3.727;1.28524;-2.26863;1.01097;0.736083;-0.762541;0.0137129;7.27
1.28665;-1.80474;3.727;1.28524;-2.26863;1.01097;0.736083;-0.762541;0.0137129;7.275
0.486655;-0.461859;3.21046;1.29865;-2.28285;1.01234;0.733729;-0.797739;0.0827412;7.28
-0.770923;0.0319633;1.97953;1.31255;-2.29696;1.01459;0.73929;-0.804317;0.129691;7.285
-0.770923;0.0319633;1.97953;1.31255;-2.29696;1.01459;0.73929;-0.804317;0.129691;7.29
-0.770923;0.0319633;1.97953;1.31255;-2.29696;1.01459;0.73929;-0.804317;0.129691;7.295
-1.23307;-0.204069;0.582666;1.32368;-2.3117;1.01638;0.734983;-0.815377;0.132448;7.3
-1.23307;-0.204069;0.582666;1.32368;-2.3117;1.01638;0.734983;-0.815377;0.132448;7.305
-1.23307;-0.204069;0.582666;1.32368;-2.3117;1.01638;0.734983;-0.815377;0.132448;7.31
-1.23307;-0.204069;0.582666;1.32368;-2.3117;1.01638;0.734983;-0.815377;0.132448;7.315
-1.23307;-0.204069;0.582666;1.32368;-2.3117;1.01638;0.734983;-0.815377;0.132448;7.32
-1.23307;-0.204069;0.582666;1.32368;-2.3117;1.01638;0.734983;-0.815377;0.132448;7.325
-0.869476;-0.394837;0.381105;1.33754;-2.3258;1.01769;0.765465;-0.820302;0.121123;7.33
-0.869476;-0.394837;0.381105;1.33754;-2.3258;1.01769;0.765465;-0.820302;0.121123;7.335
-0.377029;-0.415462;0.377611;1.35064;-2.33972;1.01658;0.787419;-0.824845;0.106657;7.34
-0.377029;-0.415462;0.377611;1.35064;-2.33972;1.01658;0.787419;-0.824845;0.106657;7.345
-0.585348;1.49602;-0.0583684;1.36409;-2.35278;1.01712;0.787921;-0.793682;0.0941974;7.35
-0.585348;1.49602;-0.0583684;1.36409;-2.35278;1.01712;0.787921;-0.793682;0.0941974;7.355
-0.585348;1.49602;-0.0583684;1.36409;-2.35278;1.01712;0.787921;-0.793682;0.0941974;7.36
-0.585348;1.49602;-0.0583684;1.36409;-2.35278;1.01712;0.787921;-0.793682;0.0941974;7.365
-0.585348;1.49602;-0.0583684;1.36409;-2.35278;1.01712;0.787921;-0.793682;0.0941974;7.37
-0.585348;1.49602;-0.0583684;1.36409;-2.35278;1.01712;0.787921;-0.793682;0.0941974;7.375
-0.585348;1.49602;-0.0583684;1.36409;-2.35278;1.01712;0.787921;-0.793682;0.0941974;7.38
-0.997196;1.63116;0.245392;1.37499;-2.36551;1.01845;0.734664;-0.766665;0.0959996;7.385
-1.26049;0.819001;-0.216435;1.38395;-2.37801;1.02007;0.653567;-0.758555;0.0952958;7.39
-1.26049;0.819001;-0.216435;1.38395;-2.37801;1.02007;0.653567;-0.758555;0.0952958;7.395
-1.26049;0.819001;-0.216435;1.38395;-2.37801;1.02007;0.653567;-0.758555;0.0952958;7.4
-1.26049;0.819001;-0.216435;1.38395;-2.37801;1.02007;0.653567;-0.758555;0.0952958;7.405
-1.26049;0.819001;-0.216435;1.38395;-2.37801;1.02007;0.653567;-0.758555;0.0952958;7.41
-1.087;0.596583;-0.433571;1.39138;-2.39031;1.0217;0.576279;-0.750905;0.0962105;7.415
-1.087;0.596583;-0.433571;1.39138;-2.39031;1.0217;0.576279;-0.750905;0.0962105;7.42
-1.087;0.596583;-0.433571;1.39138;-2.39031;1.0217;0.576279;-0.750905;0.0962105;7.425
-1.087;0.596583;-0.433571;1.39138;-2.39031;1.0217;0.576279;-0.750905;0.0962105;7.43
-1.1893;0.381147;-0.633261;1.39849;-2.40216;1.02327;0.521625;-0.738082;0.093942;7.435
-0.947147;0.237883;-0.377714;1.40584;-2.4137;1.02482;0.495151;-0.725578;0.0931822;7.44
-0.947147;0.237883;-0.377714;1.40584;-2.4137;1.02482;0.495151;-0.725578;0.0931822;7.445
-0.947147;0.237883;-0.377714;1.40584;-2.4137;1.02482;0.495151;-0.725578;0.0931822;7.45
-1.10318;0.648067;-0.401616;1.41401;-2.42474;1.02633;0.487217;-0.70012;0.0895482;7.455
-1.10318;0.648067;-0.401616;1.41401;-2.42474;1.02633;0.487217;-0.70012;0.0895482;7.46
-1.10318;0.648067;-0.401616;1.41401;-2.42474;1.02633;0.487217;-0.70012;0.0895482;7.465
-1.10318;0.648067;-0.401616;1.41401;-2.42474;1.02633;0.487217;-0.70012;0.0895482;7.47
-1.10318;0.648067;-0.401616;1.41401;-2.42474;1.02633;0.487217;-0.70012;0.0895482;7.475
-1.10318;0.648067;-0.401616;1.41401;-2.42474;1.02633;0.487217;-0.70012;0.0895482;7.48
-1.11936;0.728275;-0.367817;1.42262;-2.43518;1.02775;0.485753;-0.668775;0.0855066;7.485
-1.04591;0.479759;-0.331657;1.43125;-2.44527;1.0291;0.481716;-0.643882;0.0834838;7.49
-1.04591;0.479759;-0.331657;1.43125;-2.44527;1.0291;0.481716;-0.643882;0.0834838;7.495
-0.891472;0.507372;-0.360863;1.43936;-2.45525;1.03035;0.468825;-0.623529;0.0814904;7.5
-0.891472;0.507372;-0.360863;1.43936;-2.45525;1.03035;0.468825;-0.623529;0.0814904;7.505
-0.891472;0.507372;-0.360863;1.43936;-2.45525;1.03035;0.468825;-0.623529;0.0814904;7.51
-0.891472;0.507372;-0.360863;1.43936;-2.45525;1.03035;0.468825;-0.623529;0.0814904;7.515
-0.891472;0.507372;-0.360863;1.43936;-2.45525;1.03035;0.468825;-0.623529;0.0814904;7.52
-0.891472;0.507372;-0.360863;1.43936;-2.45525;1.03035;0.468825;-0.623529;0.0814904;7.525
-0.891472;0.507372;-0.360863;1.43936;-2.45525;1.03035;0.468825;-0.623529;0.0814904;7.53
-0.72534;0.564948;-0.468019;1.44715;-2.46485;1.03141;0.457088;-0.604016;0.0734905;7.535
-1.00828;0.489724;-0.655433;1.45445;-2.47444;1.03223;0.436393;-0.591364;0.0599578;7.54
-1.00828;0.489724;-0.655433;1.45445;-2.47444;1.03223;0.436393;-0.591364;0.0599578;7.545
-1.00828;0.489724;-0.655433;1.45445;-2.47444;1.03223;0.436393;-0.591364;0.0599578;7.55
-1.00828;0.489724;-0.655433;1.45445;-2.47444;1.03223;0.436393;-0.591364;0.0599578;7.555
-1.00828;0.489724;-0.655433;1.45445;-2.47444;1.03223;0.436393;-0.591364;0.0599578;7.56
-0.83425;0.20491;-0.751486;1.4612;-2.4842;1.0328;0.41646;-0.589987;0.0437999;7.565
-0.83425;0.20491;-0.751486;1.4612;-2.4842;1.0328;0.41646;-0.589987;0.0437999;7.57
-0.83425;0.20491;-0.751486;1.4612;-2.4842;1.0328;0.41646;-0.589987;0.0437999;7.575
-0.83425;0.20491;-0.751486;1.4612;-2.4842;1.0328;0.41646;-0.589987;0.0437999;7.58
-0.739381;0.2324;-0.65502;1.46794;-2.49405;1.03316;0.402604;-0.590492;0.0292122;7.585
-0.739381;0.2324;-0.65502;1.46794;-2.49405;1.03316;0.402604;-0.590492;0.0292122;7.59
-0.739381;0.2324;-0.65502;1.46794;-2.49405;1.03316;0.402604;-0.590492;0.0292122;7.595
-0.676128;0.158888;-0.462145;1.47469;-2.50383;1.03335;0.392107;-0.589714;0.0195743;7.6
-0.720894;0.122548;-0.483149;1.48146;-2.51335;1.03341;0.384921;-0.58493;0.01158;7.605
-0.720894;0.122548;-0.483149;1.48146;-2.51335;1.03341;0.384921;-0.58493;0.01158;7.61
-0.720894;0.122548;-0.483149;1.48146;-2.51335;1.03341;0.384921;-0.58493;0.01158;7.615
